SampleNumber,Date,Time,Acceleration_X,Acceleration_Y,Acceleration_Z
2039,07/26/2019,21:08:02.282126,-0.137122615814381,0.576425667305131,-0.790179323576954
2079,07/26/2019,21:08:02.302126,-0.137114730358371,0.576501923712913,-0.790233139115678
2119,07/26/2019,21:08:02.322126,-0.13709387258277,0.576554985185684,-0.790269013374213
2159,07/26/2019,21:08:02.342126,-0.137170055121631,0.576584237940066,-0.790208727373294
2199,07/26/2019,21:08:02.362126,-0.137222511063763,0.576586356912797,-0.790128755976962
2239,07/26/2019,21:08:02.382126,-0.137119475463948,0.576562785548611,-0.7901159642446
2279,07/26/2019,21:08:02.402126,-0.137056466980681,0.576552936381028,-0.79013111616158
2319,07/26/2019,21:08:02.422126,-0.137175500998578,0.57656984298874,-0.790135208373703
2359,07/26/2019,21:08:02.442126,-0.137226201971721,0.57659155547574,-0.790165137383174
2399,07/26/2019,21:08:02.462126,-0.137056295686573,0.576618132735268,-0.790217982380178
2439,07/26/2019,21:08:02.482126,-0.136952400557043,0.576632375735493,-0.790225219922815
2479,07/26/2019,21:08:02.502126,-0.137113289073173,0.576603952543151,-0.790173685432964
2519,07/26/2019,21:08:02.522126,-0.137288647867674,0.576580209808404,-0.790153365651909
2559,07/26/2019,21:08:02.542126,-0.137239748548905,0.576598584046171,-0.790227215220186
2599,07/26/2019,21:08:02.562126,-0.137101757860964,0.576584129850587,-0.790300927361034
2639,07/26/2019,21:08:02.582126,-0.137076954221507,0.576529803960977,-0.79025881121627
2679,07/26/2019,21:08:02.602126,-0.137145707047314,0.576563244680857,-0.790182456191809
2719,07/26/2019,21:08:02.622126,-0.1371984660727,0.576664168426109,-0.790213138643864
2759,07/26/2019,21:08:02.642126,-0.137199095967959,0.576629795564906,-0.790278943242174
2799,07/26/2019,21:08:02.662126,-0.137198223332781,0.576450058273314,-0.790233197954363
2839,07/26/2019,21:08:02.682126,-0.137249798810382,0.576365180757121,-0.790143150569915
2879,07/26/2019,21:08:02.702126,-0.137272141131546,0.576450471221077,-0.790146541047798
2919,07/26/2019,21:08:02.722126,-0.137170630448371,0.576509188015749,-0.790185266753807
2959,07/26/2019,21:08:02.742126,-0.137104229060635,0.576463109515597,-0.790179946506558
2999,07/26/2019,21:08:02.762126,-0.137221860876356,0.576448614580425,-0.79023441040453
3039,07/26/2019,21:08:02.782126,-0.137294398763557,0.576476389498886,-0.790376216202181
3079,07/26/2019,21:08:02.802126,-0.137145222496927,0.576444092476909,-0.790413661199189
3119,07/26/2019,21:08:02.822126,-0.13703302011724,0.576422146817509,-0.790290954261627
3159,07/26/2019,21:08:02.842126,-0.137105059031441,0.576481329814389,-0.790213029232539
3199,07/26/2019,21:08:02.862126,-0.137122577912234,0.576492409946182,-0.790283552681833
3239,07/26/2019,21:08:02.882126,-0.13703401133607,0.576432285235345,-0.790376059380193
3279,07/26/2019,21:08:02.902126,-0.137051802718668,0.576448917784641,-0.790390200635909
3319,07/26/2019,21:08:02.922126,-0.137143564252638,0.576504567128642,-0.790370268490292
3359,07/26/2019,21:08:02.942126,-0.137156168912229,0.576465439258532,-0.790381580768418
3399,07/26/2019,21:08:02.962126,-0.137185529901001,0.576412945942079,-0.790396562026013
3439,07/26/2019,21:08:02.982126,-0.137300473071884,0.576445873597547,-0.790342955682854
3479,07/26/2019,21:08:03.002126,-0.137321790241085,0.576488925477514,-0.790269736377162
3519,07/26/2019,21:08:03.022126,-0.137186798151996,0.576509594307818,-0.790324144614185
3559,07/26/2019,21:08:03.042126,-0.137091414227001,0.57655631849843,-0.790475663538615
3599,07/26/2019,21:08:03.062126,-0.137127633235079,0.576590263889969,-0.790503182524402
3639,07/26/2019,21:08:03.082126,-0.137166880467241,0.576572330792916,-0.790364555009599
3679,07/26/2019,21:08:03.102126,-0.137138030240775,0.576559207701965,-0.790263719891783
3719,07/26/2019,21:08:03.122126,-0.137096422788688,0.576561086356875,-0.790281470366164
3759,07/26/2019,21:08:03.142126,-0.137059234152954,0.576522802283635,-0.790307426525261
3799,07/26/2019,21:08:03.162126,-0.137029887387466,0.576482907702054,-0.790333900303666
3839,07/26/2019,21:08:03.182126,-0.137067011590793,0.576523761888773,-0.79042678625863
3879,07/26/2019,21:08:03.202126,-0.137170236863467,0.576575720656651,-0.790478567762776
3919,07/26/2019,21:08:03.222126,-0.137261203860803,0.576514175263966,-0.790353111108394
3959,07/26/2019,21:08:03.242126,-0.13729544923498,0.576422276807594,-0.790173832175764
3999,07/26/2019,21:08:03.262126,-0.137259876767464,0.576459432429212,-0.790171760407137
4039,07/26/2019,21:08:03.282126,-0.137179070376915,0.576543536754053,-0.790327338398495
4079,07/26/2019,21:08:03.302126,-0.137158663023847,0.576526985607169,-0.790412243847465
4119,07/26/2019,21:08:03.322126,-0.137246761543581,0.576503568251443,-0.790351025793425
4159,07/26/2019,21:08:03.342126,-0.137331578545356,0.576551438346156,-0.79026916654738
4199,07/26/2019,21:08:03.362126,-0.137311667678197,0.576513156951135,-0.7902060301995
4239,07/26/2019,21:08:03.382126,-0.137225797458427,0.57637941460833,-0.790130572863873
4279,07/26/2019,21:08:03.402126,-0.137150708630465,0.576387220801146,-0.790155459451618
4319,07/26/2019,21:08:03.422126,-0.137106664177599,0.576504860211795,-0.790326570634681
4359,07/26/2019,21:08:03.442126,-0.137104057030845,0.5764706530317,-0.790420262473467
4399,07/26/2019,21:08:03.462126,-0.137164143282173,0.576387715397351,-0.790326561927243
4439,07/26/2019,21:08:03.482126,-0.137217203623627,0.576515314498765,-0.790257518601964
4479,07/26/2019,21:08:03.502126,-0.137155525264791,0.576662673948144,-0.79032295351445
4519,07/26/2019,21:08:03.522126,-0.137087704714435,0.576575001596158,-0.790381707469453
4559,07/26/2019,21:08:03.542126,-0.137193558411871,0.576476804723666,-0.790398322998442
4599,07/26/2019,21:08:03.562126,-0.137288020634,0.576568930845874,-0.790450492962515
4639,07/26/2019,21:08:03.582126,-0.137098458835364,0.576630225989662,-0.790452611510413
4679,07/26/2019,21:08:03.602126,-0.136860230113719,0.576545695607161,-0.790304596780031
4719,07/26/2019,21:08:03.622126,-0.136932892531172,0.576514369653822,-0.790147327013802
4759,07/26/2019,21:08:03.642126,-0.137140850759063,0.576565492175405,-0.790144027236612
4799,07/26/2019,21:08:03.662126,-0.137168407632608,0.576521186138737,-0.79020928813851
4839,07/26/2019,21:08:03.682126,-0.137113812983082,0.576421927691609,-0.790188800245768
4879,07/26/2019,21:08:03.702126,-0.137130699150664,0.576461536116274,-0.790130181829673
4919,07/26/2019,21:08:03.722126,-0.137111779985953,0.576588076892907,-0.790172646460911
4959,07/26/2019,21:08:03.742126,-0.137054908516351,0.576595264574237,-0.790279183961921
4999,07/26/2019,21:08:03.762126,-0.137133894798045,0.576509592188665,-0.790296530079019
5039,07/26/2019,21:08:03.782126,-0.137262305248759,0.576498232860487,-0.790219865735723
5079,07/26/2019,21:08:03.802126,-0.137187515189003,0.576537397979317,-0.790167245235329
5119,07/26/2019,21:08:03.822126,-0.137008711005223,0.57654945749185,-0.790178212823441
5159,07/26/2019,21:08:03.842126,-0.137012229837195,0.576602906024923,-0.790240239226845
5199,07/26/2019,21:08:03.862126,-0.137134989800145,0.576664835428769,-0.790347332849933
5239,07/26/2019,21:08:03.882126,-0.137146535379007,0.576575383473747,-0.790413656418818
5279,07/26/2019,21:08:03.902126,-0.137100526536571,0.576410040071121,-0.790349487434925
5319,07/26/2019,21:08:03.922126,-0.137130284171095,0.576370865576818,-0.790223179712117
5359,07/26/2019,21:08:03.942126,-0.137147880141723,0.576426740332352,-0.790164148170526
5399,07/26/2019,21:08:03.962126,-0.137095148841309,0.576486422258239,-0.79020740767955
5439,07/26/2019,21:08:03.982126,-0.137105261983627,0.576584110982766,-0.790303886906274
5479,07/26/2019,21:08:04.002126,-0.137210486805926,0.576657778412562,-0.790350736647327
5519,07/26/2019,21:08:04.022126,-0.137261917551135,0.576594283292792,-0.790274590171695
5559,07/26/2019,21:08:04.042126,-0.137214223763707,0.576500207118355,-0.790161074193956
5599,07/26/2019,21:08:04.062126,-0.137174045349732,0.576521515649354,-0.790139514729294
5639,07/26/2019,21:08:04.082126,-0.137190900710385,0.576577162166824,-0.790177882650049
5679,07/26/2019,21:08:04.102126,-0.137222103073912,0.576560407543548,-0.79019250922921
5719,07/26/2019,21:08:04.122126,-0.137212202932112,0.576533460876384,-0.790214988565055
5759,07/26/2019,21:08:04.142126,-0.137126468312448,0.576546099911304,-0.790281059786917
5799,07/26/2019,21:08:04.162126,-0.137033258455086,0.576528500024507,-0.790340562525204
5839,07/26/2019,21:08:04.182126,-0.137063613249603,0.57647115198896,-0.790348657774708
5879,07/26/2019,21:08:04.202126,-0.137180541257168,0.576483112040652,-0.790296280465954
5919,07/26/2019,21:08:04.222126,-0.137224246903043,0.576585370430791,-0.79020642276441
5959,07/26/2019,21:08:04.242126,-0.137196284550986,0.576644730806879,-0.790173813455409
5999,07/26/2019,21:08:04.262126,-0.137184735391523,0.576592449529462,-0.79026814907883
6039,07/26/2019,21:08:04.282126,-0.137150658738831,0.576512885343225,-0.790407659681286
6079,07/26/2019,21:08:04.302126,-0.137090493879356,0.576473198873081,-0.790472263292281
6119,07/26/2019,21:08:04.322126,-0.137118747606593,0.576464531546695,-0.79045421714331
6159,07/26/2019,21:08:04.342126,-0.137195403797331,0.57647178228192,-0.790386241200704
6199,07/26/2019,21:08:04.362126,-0.13717453309449,0.57645253896052,-0.790271529035746
6239,07/26/2019,21:08:04.382126,-0.137133519083774,0.576393694074413,-0.790190189696288
6279,07/26/2019,21:08:04.402126,-0.137175868694466,0.576395533583754,-0.790281158209171
6319,07/26/2019,21:08:04.422126,-0.137129820159545,0.5764756749608,-0.790487460757896
6359,07/26/2019,21:08:04.442126,-0.136953628460757,0.576483462564641,-0.79054904648401
6399,07/26/2019,21:08:04.462126,-0.136963990340021,0.576409657938259,-0.790382342344077
6439,07/26/2019,21:08:04.482126,-0.137188277594438,0.576405156435579,-0.790191458493275
6479,07/26/2019,21:08:04.502126,-0.13720348074309,0.576436832511645,-0.790122526501056
6519,07/26/2019,21:08:04.522126,-0.136967356970021,0.576390578171249,-0.790126178560762
6559,07/26/2019,21:08:04.542126,-0.13693051282792,0.576366263792539,-0.79016110788099
6599,07/26/2019,21:08:04.562126,-0.137160135118605,0.576450284810282,-0.790218127124684
6639,07/26/2019,21:08:04.582126,-0.137268695092751,0.576516288452211,-0.790217651160824
6679,07/26/2019,21:08:04.602126,-0.137184176537382,0.576511403395562,-0.790136539387106
6719,07/26/2019,21:08:04.622126,-0.137167546261272,0.576539110458306,-0.79010122703813
6759,07/26/2019,21:08:04.642126,-0.13722942727431,0.576590172805251,-0.79018864644151
6799,07/26/2019,21:08:04.662126,-0.137182775918422,0.576578863258358,-0.790306951104603
6839,07/26/2019,21:08:04.682126,-0.137062380582374,0.576566014636157,-0.790346282928807
6879,07/26/2019,21:08:04.702126,-0.137029080515065,0.576628762282349,-0.790281415159298
6919,07/26/2019,21:08:04.722126,-0.137072785067175,0.576679528888739,-0.790163707582897
6959,07/26/2019,21:08:04.742126,-0.13711769631237,0.576647450340804,-0.790124787999257
6999,07/26/2019,21:08:04.762126,-0.137190156577046,0.5766100139454,-0.790245579441988
7039,07/26/2019,21:08:04.782126,-0.137271086864251,0.576596654656647,-0.79039447648497
7079,07/26/2019,21:08:04.802126,-0.137251008566664,0.576546039245223,-0.790376833834415
7119,07/26/2019,21:08:04.822126,-0.137157820509793,0.576514844606748,-0.790194208957733
7159,07/26/2019,21:08:04.842126,-0.137120224866266,0.576587708120774,-0.790029999338483
7199,07/26/2019,21:08:04.862126,-0.13711237820586,0.576633106397068,-0.790046283652718
7239,07/26/2019,21:08:04.882126,-0.137070008257406,0.576546193321107,-0.790211361139821
7279,07/26/2019,21:08:04.902126,-0.137081025986388,0.576531960438088,-0.790330236933958
7319,07/26/2019,21:08:04.922126,-0.137153368765203,0.576691885535039,-0.790305519325573
7359,07/26/2019,21:08:04.942126,-0.137126602656089,0.576725940809102,-0.790226696830317
7399,07/26/2019,21:08:04.962126,-0.137007836971543,0.576529068607563,-0.790152068317589
7439,07/26/2019,21:08:04.982126,-0.136976459628176,0.576466779385597,-0.790086396518584
7479,07/26/2019,21:08:05.002126,-0.137038937641129,0.57663584990173,-0.790132949542953
7519,07/26/2019,21:08:05.022126,-0.13708445211428,0.576665918135022,-0.790319503836223
7559,07/26/2019,21:08:05.042126,-0.137119166374729,0.576506934993438,-0.790431337433013
7599,07/26/2019,21:08:05.062126,-0.137151331199106,0.576496594422226,-0.790307906188952
7639,07/26/2019,21:08:05.082126,-0.137130728517908,0.576618111164597,-0.790087537866893
7679,07/26/2019,21:08:05.102126,-0.137118448681723,0.576570033092841,-0.790021036573204
7719,07/26/2019,21:08:05.122126,-0.137190790196931,0.576418884606187,-0.790202270626807
7759,07/26/2019,21:08:05.142126,-0.137243960893701,0.576450455761249,-0.790455018548176
7799,07/26/2019,21:08:05.162126,-0.137184419491413,0.576601744222303,-0.790493517696822
7839,07/26/2019,21:08:05.182126,-0.137113599428474,0.576602653168515,-0.790296208228454
7879,07/26/2019,21:08:05.202126,-0.137116580039176,0.576479235123698,-0.790123860089532
7919,07/26/2019,21:08:05.222126,-0.137113600807073,0.576472958812043,-0.790124916909947
7959,07/26/2019,21:08:05.242126,-0.137052585815664,0.576588147753642,-0.790215912061449
7999,07/26/2019,21:08:05.262126,-0.13702759721339,0.576610544487985,-0.790271970353581
8039,07/26/2019,21:08:05.282126,-0.137089045263996,0.576520941913175,-0.790218972427764
8079,07/26/2019,21:08:05.302126,-0.137109559424076,0.57650925070835,-0.790101119285192
8119,07/26/2019,21:08:05.322126,-0.137013470550727,0.576582279131489,-0.790061398686483
8159,07/26/2019,21:08:05.342126,-0.136972607173136,0.576553394502924,-0.790119230570828
8199,07/26/2019,21:08:05.362126,-0.137105663421775,0.57643980352185,-0.790179333074225
8239,07/26/2019,21:08:05.382126,-0.137207009950795,0.576442273013872,-0.790248081378733
8279,07/26/2019,21:08:05.402126,-0.137105019931394,0.576532669883142,-0.790314952192973
8319,07/26/2019,21:08:05.422126,-0.136982698331989,0.576528594791792,-0.790230677609637
8359,07/26/2019,21:08:05.442126,-0.137023076166243,0.576488316179807,-0.790029999069711
8399,07/26/2019,21:08:05.462126,-0.137099868249672,0.576541887718837,-0.790022687719678
8439,07/26/2019,21:08:05.482126,-0.1370814067691,0.576559894116363,-0.790296030403163
8479,07/26/2019,21:08:05.502126,-0.137076115118907,0.576442909914066,-0.790509076314228
8519,07/26/2019,21:08:05.522126,-0.137154152228572,0.576378091947808,-0.790398297253546
8559,07/26/2019,21:08:05.542126,-0.137159385521305,0.576487897484711,-0.790160933455177
8599,07/26/2019,21:08:05.562126,-0.137038521457897,0.576635724936652,-0.790120517056659
8639,07/26/2019,21:08:05.582126,-0.137025184641912,0.576686781366462,-0.790261110527723
8679,07/26/2019,21:08:05.602126,-0.137199201680296,0.576615302251142,-0.790351571148663
8719,07/26/2019,21:08:05.622126,-0.137271824020516,0.576461955333166,-0.790337000579969
8759,07/26/2019,21:08:05.642126,-0.137132613940305,0.576373307409927,-0.790305391359458
8799,07/26/2019,21:08:05.662126,-0.137059354624988,0.57645279472008,-0.790252221878644
8839,07/26/2019,21:08:05.682126,-0.137136254432161,0.576580635187082,-0.790188007501323
8879,07/26/2019,21:08:05.702126,-0.137138150911324,0.576604914188713,-0.790248509414673
8919,07/26/2019,21:08:05.722126,-0.137063881411317,0.576543118943713,-0.790417302434394
8959,07/26/2019,21:08:05.742126,-0.137099510146684,0.57647600877787,-0.790449418276484
8999,07/26/2019,21:08:05.762126,-0.137176627277833,0.576467777801871,-0.790287320313143
9039,07/26/2019,21:08:05.782126,-0.137128425195477,0.57656525768219,-0.790161042431689
9079,07/26/2019,21:08:05.802126,-0.137048380390103,0.576699930064824,-0.790166897365487
9119,07/26/2019,21:08:05.822126,-0.137103273835582,0.57672439439746,-0.79019020974084
9159,07/26/2019,21:08:05.842126,-0.137210979289398,0.576615690827198,-0.790212074920175
9199,07/26/2019,21:08:05.862126,-0.137187744016564,0.576498711448221,-0.790271201477902
9239,07/26/2019,21:08:05.882126,-0.137077552531152,0.576488221021133,-0.790298902828082
9279,07/26/2019,21:08:05.902126,-0.137070879410949,0.57657223445378,-0.790278927785025
9319,07/26/2019,21:08:05.922126,-0.137181528438718,0.576628523840696,-0.790282677727201
9359,07/26/2019,21:08:05.942126,-0.137260987646334,0.576600423070628,-0.790275901150998
9399,07/26/2019,21:08:05.962126,-0.137233229512248,0.57658807001713,-0.790215250896383
9439,07/26/2019,21:08:05.982126,-0.137134956465381,0.576647468398897,-0.790198224544711
9479,07/26/2019,21:08:06.002126,-0.137050364004986,0.57668003773605,-0.790258880503929
9519,07/26/2019,21:08:06.022126,-0.137046070913783,0.576642045851927,-0.790274480666585
9559,07/26/2019,21:08:06.042126,-0.137088287669443,0.576619911174879,-0.7902044149633
9599,07/26/2019,21:08:06.062126,-0.137108258368669,0.576626744298613,-0.79016094064149
9639,07/26/2019,21:08:06.082126,-0.137106523136234,0.576575815105302,-0.790217509354681
9679,07/26/2019,21:08:06.102126,-0.137086024779087,0.576477682593123,-0.79030799208237
9719,07/26/2019,21:08:06.122126,-0.137050982424002,0.576425619875036,-0.790315974683577
9759,07/26/2019,21:08:06.142126,-0.137073863797323,0.576407497248921,-0.790234231112794
9799,07/26/2019,21:08:06.162126,-0.137148036437903,0.576371828305503,-0.790192425996262
9839,07/26/2019,21:08:06.182126,-0.137133385213963,0.576386166634922,-0.790262778245796
9879,07/26/2019,21:08:06.202126,-0.137017372731923,0.576476315654231,-0.790338560615242
9919,07/26/2019,21:08:06.222126,-0.136974586488742,0.576507918674854,-0.790303500479483
9959,07/26/2019,21:08:06.242126,-0.137082047316377,0.576450240970351,-0.79020119197469
9999,07/26/2019,21:08:06.262126,-0.137190117364249,0.576452847160576,-0.790143487480905
10039,07/26/2019,21:08:06.282126,-0.13712816433606,0.57654116025815,-0.790157230336289
10079,07/26/2019,21:08:06.302126,-0.136966251060869,0.576583594157883,-0.790206633981222
10119,07/26/2019,21:08:06.322126,-0.136942286197085,0.576552252705913,-0.790272545024178
10159,07/26/2019,21:08:06.342126,-0.137070859516646,0.576533113728366,-0.790316753699971
10199,07/26/2019,21:08:06.362126,-0.137121388866649,0.576566414204066,-0.790270876748664
10239,07/26/2019,21:08:06.382126,-0.137061803394335,0.576620677881918,-0.790154023690388
10279,07/26/2019,21:08:06.402126,-0.137071504160825,0.576639919628031,-0.790078399784855
10319,07/26/2019,21:08:06.422126,-0.137133832103924,0.576598189651884,-0.79008622489154
10359,07/26/2019,21:08:06.442126,-0.137107032526225,0.576535579289651,-0.790123060371235
10399,07/26/2019,21:08:06.462126,-0.137049726019849,0.576513474671734,-0.790146890611868
10439,07/26/2019,21:08:06.482126,-0.137076827407369,0.576548269346215,-0.790138126664585
10479,07/26/2019,21:08:06.502126,-0.137108318883119,0.576592749675486,-0.790111241418372
10519,07/26/2019,21:08:06.522126,-0.137029536953827,0.576583711857724,-0.790151666008547
10559,07/26/2019,21:08:06.542126,-0.136924006977999,0.576533994980961,-0.790261905930603
10599,07/26/2019,21:08:06.562126,-0.136945687635475,0.576525614348907,-0.790275151497449
10639,07/26/2019,21:08:06.582126,-0.137047855926662,0.576587031828527,-0.790128846972629
10679,07/26/2019,21:08:06.602126,-0.137061980363898,0.57664485220385,-0.790014263807036
10719,07/26/2019,21:08:06.622126,-0.136998882685383,0.576607265030869,-0.790082498781688
10759,07/26/2019,21:08:06.642126,-0.136995993969091,0.576494758958465,-0.790223208766501
10799,07/26/2019,21:08:06.662126,-0.137054512432346,0.576461043696869,-0.790245754103209
10839,07/26/2019,21:08:06.682126,-0.137093042819451,0.576571981094173,-0.790140809941946
10879,07/26/2019,21:08:06.702126,-0.137100504812284,0.576666658433601,-0.790074464231392
10919,07/26/2019,21:08:06.722126,-0.137090759118259,0.576623004525909,-0.790146033423366
10959,07/26/2019,21:08:06.742126,-0.137091649609636,0.576556100921625,-0.790269607845961
10999,07/26/2019,21:08:06.762126,-0.137147518834577,0.576583028829613,-0.790340479208938
11039,07/26/2019,21:08:06.782126,-0.137201949900494,0.576643099161801,-0.790360814709757
11079,07/26/2019,21:08:06.802126,-0.137155792066915,0.576649739848572,-0.79035841060275
11119,07/26/2019,21:08:06.822126,-0.137078818737291,0.576622408954402,-0.790326857932699
11159,07/26/2019,21:08:06.842126,-0.137117011200893,0.576614228366453,-0.790261396158477
11199,07/26/2019,21:08:06.862126,-0.137223133531031,0.576604303818452,-0.79019550765637
11239,07/26/2019,21:08:06.882126,-0.137233950762034,0.576556497606083,-0.790187108494864
11279,07/26/2019,21:08:06.902126,-0.137142757219815,0.576539445184532,-0.790224822680106
11319,07/26/2019,21:08:06.922126,-0.137065683777562,0.576598227306175,-0.790212965036899
11359,07/26/2019,21:08:06.942126,-0.137059877893639,0.576613494260179,-0.790137503112469
11399,07/26/2019,21:08:06.962126,-0.137140221766336,0.576527864949302,-0.79010488027547
11439,07/26/2019,21:08:06.982126,-0.137268415943987,0.576466815574429,-0.790146085982873
11479,07/26/2019,21:08:07.002126,-0.137286525295504,0.576466310742502,-0.790164023200497
11519,07/26/2019,21:08:07.022126,-0.137138350380648,0.57644861111633,-0.790115375941473
11559,07/26/2019,21:08:07.042126,-0.137017065986523,0.576459487106258,-0.790090676336588
11599,07/26/2019,21:08:07.062126,-0.137039075583624,0.57654030446348,-0.790156145899492
11639,07/26/2019,21:08:07.082126,-0.137076113017633,0.576568906556071,-0.790215158000638
11679,07/26/2019,21:08:07.102126,-0.137050960489063,0.576506546679642,-0.790164032444358
11719,07/26/2019,21:08:07.122126,-0.137044041017362,0.576466788163129,-0.790092175199826
11759,07/26/2019,21:08:07.142126,-0.137102570870837,0.576449005227041,-0.790102387210913
11799,07/26/2019,21:08:07.162126,-0.137189071757213,0.576373793507884,-0.790111363081928
11839,07/26/2019,21:08:07.182126,-0.137223870954626,0.576308755882245,-0.790077086782922
11879,07/26/2019,21:08:07.202126,-0.137134757950114,0.576353059042919,-0.790119625674917
11919,07/26/2019,21:08:07.222126,-0.136993524319875,0.576448267859655,-0.790243427349215
11959,07/26/2019,21:08:07.242126,-0.136966050120404,0.576485807841685,-0.790297951209555
11999,07/26/2019,21:08:07.262126,-0.137037960748622,0.576454040048262,-0.790235501914541
12039,07/26/2019,21:08:07.282126,-0.137049586192029,0.576409194408843,-0.790122786740184
12079,07/26/2019,21:08:07.302126,-0.137010184255627,0.576402124521297,-0.790026893691357
12119,07/26/2019,21:08:07.322126,-0.13704365598989,0.576440944752712,-0.790035315973782
12159,07/26/2019,21:08:07.342126,-0.137091870421595,0.576488204341922,-0.790187622413051
12199,07/26/2019,21:08:07.362126,-0.1370293618111,0.576517745099405,-0.790358384481155
12239,07/26/2019,21:08:07.382126,-0.13695204522675,0.576548531535035,-0.790391282441286
12279,07/26/2019,21:08:07.402126,-0.137021178110663,0.576576899731913,-0.790312453422412
12319,07/26/2019,21:08:07.422126,-0.137166275791943,0.576552858657666,-0.79025538750375
12359,07/26/2019,21:08:07.442126,-0.137214183496985,0.576477075373949,-0.790243309186161
12399,07/26/2019,21:08:07.462126,-0.137155468831594,0.576419313147747,-0.79021976843427
12439,07/26/2019,21:08:07.482126,-0.13708011845094,0.576420654324784,-0.790207053085584
12479,07/26/2019,21:08:07.502126,-0.137026340475813,0.576472506046019,-0.790238552387099
12519,07/26/2019,21:08:07.522126,-0.137035518512335,0.576546503228353,-0.790246991408022
12559,07/26/2019,21:08:07.542126,-0.137154284446202,0.576581634790672,-0.790180378482562
12599,07/26/2019,21:08:07.562126,-0.13729379619002,0.576533374413636,-0.790087653433154
12639,07/26/2019,21:08:07.582126,-0.137297662483091,0.576447758434807,-0.790024391204834
12679,07/26/2019,21:08:07.602126,-0.137181736137537,0.576402765267561,-0.790033287129115
12719,07/26/2019,21:08:07.622126,-0.137102844269835,0.576417028630207,-0.790175757293101
12759,07/26/2019,21:08:07.642126,-0.137101379176552,0.576455725545502,-0.790402165374232
12799,07/26/2019,21:08:07.662126,-0.137093923038835,0.576471623461101,-0.790488031609414
12839,07/26/2019,21:08:07.682126,-0.137094567029345,0.576450528705003,-0.790315293809929
12879,07/26/2019,21:08:07.702126,-0.137165049215492,0.576420069479635,-0.790119393327468
12919,07/26/2019,21:08:07.722126,-0.137192220686323,0.576375747430859,-0.79017490939404
12959,07/26/2019,21:08:07.742126,-0.137080162274792,0.576296377521167,-0.790341185670983
12999,07/26/2019,21:08:07.762126,-0.137022159212581,0.576258617798745,-0.790327368453096
13039,07/26/2019,21:08:07.782126,-0.137140602639743,0.576336681546468,-0.790244935876467
13079,07/26/2019,21:08:07.802126,-0.137183090232551,0.576425313480464,-0.790330550236273
13119,07/26/2019,21:08:07.822126,-0.13703987624026,0.576416146438586,-0.790403891845545
13159,07/26/2019,21:08:07.842126,-0.137024846772911,0.576402732972146,-0.790275846954076
13199,07/26/2019,21:08:07.862126,-0.137241332568894,0.57645004938446,-0.790230791794764
13239,07/26/2019,21:08:07.882126,-0.137353964583439,0.576428131162341,-0.790428310457245
13279,07/26/2019,21:08:07.902126,-0.137248861867932,0.576321958080076,-0.790488535335486
13319,07/26/2019,21:08:07.922126,-0.137200772600249,0.576353383240708,-0.790243694867802
13359,07/26/2019,21:08:07.942126,-0.137291198951196,0.576557882959931,-0.79010410592496
13399,07/26/2019,21:08:07.962126,-0.137313824584222,0.57663870605281,-0.790282817002849
13439,07/26/2019,21:08:07.982126,-0.137240592951088,0.576479859428165,-0.790475547051754
13479,07/26/2019,21:08:08.002126,-0.137249107891202,0.576364425909934,-0.790482046056779
13519,07/26/2019,21:08:08.022126,-0.137332343357044,0.576448610443077,-0.790408077198402
13559,07/26/2019,21:08:08.042126,-0.1373077944598,0.576526370575967,-0.790311439260124
13599,07/26/2019,21:08:08.062126,-0.137188976906583,0.576507426365977,-0.790222446551574
13639,07/26/2019,21:08:08.082126,-0.13715707074582,0.576543257929017,-0.790263493996986
13679,07/26/2019,21:08:08.102126,-0.137187700385992,0.576598293697762,-0.790406790260727
13719,07/26/2019,21:08:08.122126,-0.137135393565739,0.576516161445562,-0.790464681484414
13759,07/26/2019,21:08:08.142126,-0.137098245772446,0.576422989594042,-0.790389715201396
13799,07/26/2019,21:08:08.162126,-0.137208907393421,0.576488064094653,-0.790261753050659
13839,07/26/2019,21:08:08.182126,-0.13728850182967,0.57654805243424,-0.790142303117219
13879,07/26/2019,21:08:08.202126,-0.13719957136193,0.576443389854806,-0.790120764276458
13919,07/26/2019,21:08:08.222126,-0.137142717298698,0.576348568508945,-0.790231900278741
13959,07/26/2019,21:08:08.242126,-0.137202374466352,0.576418990208741,-0.790341423972307
13999,07/26/2019,21:08:08.262126,-0.137163281004919,0.576518805470814,-0.79034005234095
14039,07/26/2019,21:08:08.282126,-0.137027210812756,0.576526628598006,-0.79027672414584
14079,07/26/2019,21:08:08.302126,-0.137053158359403,0.576526006345133,-0.790210593334101
14119,07/26/2019,21:08:08.322126,-0.137199685182171,0.576562298949837,-0.790168630570094
14159,07/26/2019,21:08:08.342126,-0.13718489038553,0.576559557893757,-0.790202015520224
14199,07/26/2019,21:08:08.362126,-0.137038088944646,0.576534867655167,-0.790288472533675
14239,07/26/2019,21:08:08.382126,-0.136997172367079,0.576568233031725,-0.790317233879049
14279,07/26/2019,21:08:08.402126,-0.137034858527757,0.576587520259231,-0.790274224515747
14319,07/26/2019,21:08:08.422126,-0.137007201085037,0.576518158056294,-0.790256287950545
14359,07/26/2019,21:08:08.442126,-0.137012829589282,0.576493380969392,-0.790281587323679
14399,07/26/2019,21:08:08.462126,-0.137150030760123,0.576564684849047,-0.790293249906938
14439,07/26/2019,21:08:08.482126,-0.137240002274354,0.576530766764385,-0.79030824753339
14479,07/26/2019,21:08:08.502126,-0.13717070090941,0.576379785311826,-0.790339303738899
14519,07/26/2019,21:08:08.522126,-0.1371241943972,0.57639192162779,-0.7902827358237
14559,07/26/2019,21:08:08.542126,-0.137179532909605,0.576585433766439,-0.790133274833013
14599,07/26/2019,21:08:08.562126,-0.137160227510702,0.576678647119373,-0.790102991992089
14639,07/26/2019,21:08:08.582126,-0.137053422208543,0.576627636539983,-0.790259278181456
14679,07/26/2019,21:08:08.602126,-0.137060086512073,0.576595722686101,-0.790363163170709
14719,07/26/2019,21:08:08.622126,-0.137163126890941,0.576565728245459,-0.790307521834998
14759,07/26/2019,21:08:08.642126,-0.137146942016447,0.576479621089235,-0.790286642232302
14799,07/26/2019,21:08:08.662126,-0.137010780584488,0.576464853134959,-0.790371218517981
14839,07/26/2019,21:08:08.682126,-0.13695523218942,0.576565796060077,-0.790408143079677
14879,07/26/2019,21:08:08.702126,-0.137037658359644,0.576579061381236,-0.790385779421317
14919,07/26/2019,21:08:08.722126,-0.137116905582815,0.576419045526172,-0.790424687298559
14959,07/26/2019,21:08:08.742126,-0.137098419501769,0.576323616011288,-0.790474007026177
14999,07/26/2019,21:08:08.762126,-0.137053095744,0.576442353083897,-0.790397162859011
15039,07/26/2019,21:08:08.782126,-0.137057942487259,0.576554456716381,-0.79023027638733
15079,07/26/2019,21:08:08.802126,-0.137095093690988,0.576481008046349,-0.790121237847377
15119,07/26/2019,21:08:08.822126,-0.137155133990495,0.576401042806608,-0.790153469349275
15159,07/26/2019,21:08:08.842126,-0.137205483920826,0.576471811035352,-0.79030443335693
15199,07/26/2019,21:08:08.862126,-0.137143537943415,0.576559420024267,-0.79044144655522
15239,07/26/2019,21:08:08.882126,-0.137043052860432,0.576560416837755,-0.79041581913372
15279,07/26/2019,21:08:08.902126,-0.137112509748921,0.576550222630614,-0.790270161869855
15319,07/26/2019,21:08:08.922126,-0.137244193011947,0.57653364740789,-0.790199737402016
15359,07/26/2019,21:08:08.942126,-0.13717581064536,0.576456850096377,-0.790269260439155
15399,07/26/2019,21:08:08.962126,-0.13703935641548,0.576404525392033,-0.790371052974923
15439,07/26/2019,21:08:08.982126,-0.13707953347443,0.576453606533833,-0.790410033187002
15479,07/26/2019,21:08:09.002126,-0.137154005320742,0.576494268968745,-0.790358335926218
15519,07/26/2019,21:08:09.022126,-0.137101478292997,0.576434530338743,-0.790255577396762
15559,07/26/2019,21:08:09.042126,-0.13708381428456,0.576368431053851,-0.790207510652544
15599,07/26/2019,21:08:09.062126,-0.137178919351345,0.576376050617942,-0.790239184069879
15639,07/26/2019,21:08:09.082126,-0.137208290910542,0.576395378992666,-0.790251033003822
15679,07/26/2019,21:08:09.102126,-0.137120989790644,0.576407754318364,-0.790217388711905
15719,07/26/2019,21:08:09.122126,-0.137058468595118,0.576473369633179,-0.790222123242193
15759,07/26/2019,21:08:09.142126,-0.137065628353269,0.576525961299166,-0.790280852562784
15799,07/26/2019,21:08:09.162126,-0.137075792523716,0.576474191895969,-0.790334211462126
15839,07/26/2019,21:08:09.182126,-0.137070070046605,0.576448077389608,-0.790358418535635
15879,07/26/2019,21:08:09.202126,-0.137066959349644,0.576541538889721,-0.790358633077826
15919,07/26/2019,21:08:09.222126,-0.137065217463809,0.576561080022928,-0.790341591300597
15959,07/26/2019,21:08:09.242126,-0.137061535595125,0.576435782307424,-0.79031279467177
15999,07/26/2019,21:08:09.262126,-0.137053685863415,0.576401248595523,-0.790258723479927
16039,07/26/2019,21:08:09.282126,-0.137040990773717,0.576475165948526,-0.79020287811702
16079,07/26/2019,21:08:09.302126,-0.137054291282514,0.576412363914936,-0.790223655116638
16119,07/26/2019,21:08:09.322126,-0.13710987566945,0.576284790793375,-0.790311752660519
16159,07/26/2019,21:08:09.342126,-0.137119707144748,0.576359056751729,-0.790353941860547
16199,07/26/2019,21:08:09.362126,-0.136998203759317,0.576514747066262,-0.790315752090451
16239,07/26/2019,21:08:09.382126,-0.136870523144797,0.576488904303777,-0.790263393782443
16279,07/26/2019,21:08:09.402126,-0.136921951189724,0.576400636485051,-0.790241747556866
16319,07/26/2019,21:08:09.422126,-0.137039813820868,0.576458046552033,-0.790264104994704
16359,07/26/2019,21:08:09.442126,-0.136976626758071,0.576543678317095,-0.790319947841305
16399,07/26/2019,21:08:09.462126,-0.136819513859402,0.576515295712734,-0.790364300050685
16439,07/26/2019,21:08:09.482126,-0.136822806831547,0.576496288941937,-0.79038369815947
16479,07/26/2019,21:08:09.502126,-0.136924084901675,0.576575258644606,-0.79038327218194
16519,07/26/2019,21:08:09.522126,-0.136943573153095,0.576620488283506,-0.790313537926324
16559,07/26/2019,21:08:09.542126,-0.136965551989089,0.576567234054262,-0.790178898802032
16599,07/26/2019,21:08:09.562126,-0.13704627563342,0.576507102973141,-0.790127159445604
16639,07/26/2019,21:08:09.582126,-0.137007307509397,0.576455688938613,-0.790242869314317
16679,07/26/2019,21:08:09.602126,-0.136865560865533,0.576392641345472,-0.790369595566303
16719,07/26/2019,21:08:09.622126,-0.136870468389661,0.576396247069723,-0.790325915577947
16759,07/26/2019,21:08:09.642126,-0.136968994926215,0.576449251524707,-0.790206615418259
16799,07/26/2019,21:08:09.662126,-0.1369059605824,0.576418338399926,-0.790228690105754
16839,07/26/2019,21:08:09.682126,-0.136790776299287,0.576344861082543,-0.790336007001942
16879,07/26/2019,21:08:09.702126,-0.136900536570792,0.576360859680088,-0.790309768016758
16919,07/26/2019,21:08:09.722126,-0.137118771637763,0.576431732455249,-0.790205714078508
16959,07/26/2019,21:08:09.742126,-0.137128434818732,0.576501041408902,-0.790233515287319
16999,07/26/2019,21:08:09.762126,-0.13693864384955,0.576580468749266,-0.790335553545409
17039,07/26/2019,21:08:09.782126,-0.136822377540631,0.576598287506367,-0.790336699598457
17079,07/26/2019,21:08:09.802126,-0.136897832243141,0.576518775287959,-0.790293191896763
17119,07/26/2019,21:08:09.822126,-0.137037172642697,0.576470905863948,-0.790331230868512
17159,07/26/2019,21:08:09.842126,-0.137121993939247,0.576516150134181,-0.790383103987843
17199,07/26/2019,21:08:09.862126,-0.137177327757416,0.576555476310821,-0.790319058388547
17239,07/26/2019,21:08:09.882126,-0.137215729793236,0.576532884479697,-0.790174306880443
17279,07/26/2019,21:08:09.902126,-0.137154660216173,0.576507209030926,-0.790114304248812
17319,07/26/2019,21:08:09.922126,-0.137000590459123,0.576550746511848,-0.790206488145844
17359,07/26/2019,21:08:09.942126,-0.136916887024551,0.576642702267613,-0.790318259808185
17399,07/26/2019,21:08:09.962126,-0.13697833880666,0.576659016701996,-0.790326873320131
17439,07/26/2019,21:08:09.982126,-0.137050582710156,0.57654418075058,-0.79029218627952
17479,07/26/2019,21:08:10.002126,-0.137034107887377,0.576418190360033,-0.790271544058802
17519,07/26/2019,21:08:10.022126,-0.137018678999266,0.576403916671213,-0.79020194231634
17559,07/26/2019,21:08:10.042126,-0.137066342117816,0.576475554197608,-0.790126652847754
17599,07/26/2019,21:08:10.062126,-0.137078994408992,0.576536065086469,-0.79020988291777
17639,07/26/2019,21:08:10.082126,-0.137019161783351,0.57653308088137,-0.790395485475981
17679,07/26/2019,21:08:10.102126,-0.136992449950301,0.576492008477998,-0.790413049901907
17719,07/26/2019,21:08:10.122126,-0.13701935847031,0.576478282889132,-0.790208767648589
17759,07/26/2019,21:08:10.142126,-0.137028168812717,0.576508923563845,-0.790039440296538
17799,07/26/2019,21:08:10.162126,-0.137041539241203,0.576514331112464,-0.790081951951992
17839,07/26/2019,21:08:10.182126,-0.137068021902831,0.576431484640013,-0.790212840226916
17879,07/26/2019,21:08:10.202126,-0.137016877683438,0.576328682770558,-0.790244153545027
17919,07/26/2019,21:08:10.222126,-0.136934104101636,0.576349558462711,-0.790196564687529
17959,07/26/2019,21:08:10.242126,-0.136956628906948,0.576489678579676,-0.790218052831488
17999,07/26/2019,21:08:10.262126,-0.137016867944323,0.576565310408293,-0.790312440091768
18039,07/26/2019,21:08:10.282126,-0.137015853320871,0.576478971490467,-0.790323454744836
18079,07/26/2019,21:08:10.302126,-0.13704430951304,0.57634870388023,-0.790210027048052
18119,07/26/2019,21:08:10.322126,-0.137100446304097,0.576309598666216,-0.790129692890969
18159,07/26/2019,21:08:10.342126,-0.137047475938668,0.576352201613592,-0.790171631684482
18199,07/26/2019,21:08:10.362126,-0.136957668917395,0.576408710203161,-0.790246582422344
18239,07/26/2019,21:08:10.382126,-0.13697009112198,0.576473299551102,-0.790306459860176
18279,07/26/2019,21:08:10.402126,-0.136982302416841,0.576548815643144,-0.790386450756287
18319,07/26/2019,21:08:10.422126,-0.136928060479622,0.57655027858694,-0.790408305244973
18359,07/26/2019,21:08:10.442126,-0.136965035809139,0.576442588124399,-0.790264065604923
18399,07/26/2019,21:08:10.462126,-0.137112876050821,0.576391958820592,-0.790083549669331
18439,07/26/2019,21:08:10.482126,-0.137171585549832,0.576498238654315,-0.790099581925593
18479,07/26/2019,21:08:10.502126,-0.137092823961118,0.576576295721064,-0.790279817079019
18519,07/26/2019,21:08:10.522126,-0.137030063112445,0.57652659798674,-0.790393152129898
18559,07/26/2019,21:08:10.542126,-0.137049372168026,0.576528774443889,-0.790373403899939
18599,07/26/2019,21:08:10.562126,-0.137079542009591,0.576618640356462,-0.79031561500218
18639,07/26/2019,21:08:10.582126,-0.137087658281816,0.576619902717278,-0.790246455858587
18679,07/26/2019,21:08:10.602126,-0.137104082783025,0.576549689516973,-0.790193915690211
18719,07/26/2019,21:08:10.622126,-0.137115597300208,0.576543550462959,-0.790257355783562
18759,07/26/2019,21:08:10.642126,-0.137098492096957,0.576563644555084,-0.790390165157616
18799,07/26/2019,21:08:10.662126,-0.137108218831901,0.576568005723678,-0.790434432685927
18839,07/26/2019,21:08:10.682126,-0.137162705036037,0.576619519359755,-0.790419048983513
18879,07/26/2019,21:08:10.702126,-0.137157055441154,0.576674624138082,-0.790444664076682
18919,07/26/2019,21:08:10.722126,-0.137083251423109,0.576631924749604,-0.790431474062498
18959,07/26/2019,21:08:10.742126,-0.137115331515904,0.576563651527183,-0.790341284006529
18999,07/26/2019,21:08:10.762126,-0.137286414530618,0.576608555421045,-0.790323622459413
19039,07/26/2019,21:08:10.782126,-0.137348823284899,0.57670130831884,-0.790384257190529
19079,07/26/2019,21:08:10.802126,-0.137150432180221,0.576653023861307,-0.790344581232031
19119,07/26/2019,21:08:10.822126,-0.136926271684483,0.576513336237356,-0.790250691254793
19159,07/26/2019,21:08:10.842126,-0.136973776945801,0.576527943141891,-0.790324104152
19199,07/26/2019,21:08:10.862126,-0.137178361583273,0.576642895707225,-0.790489106094371
19239,07/26/2019,21:08:10.882126,-0.137214739249164,0.576566955454036,-0.790458258492554
19279,07/26/2019,21:08:10.902126,-0.137107486130057,0.576394891069867,-0.79025603475499
19319,07/26/2019,21:08:10.922126,-0.137095446122255,0.576464891706904,-0.790193742112542
19359,07/26/2019,21:08:10.942126,-0.137123425551163,0.576676010051085,-0.790358434669755
19399,07/26/2019,21:08:10.962126,-0.137045818356147,0.576710735491197,-0.790504035833622
19439,07/26/2019,21:08:10.982126,-0.137001116457203,0.576649412904077,-0.790443490497168
19479,07/26/2019,21:08:11.002126,-0.137073057458229,0.57669663378226,-0.790270671811432
19519,07/26/2019,21:08:11.022126,-0.137081771187087,0.576740863538439,-0.790162471936458
19559,07/26/2019,21:08:11.042126,-0.137016874681043,0.576652266656383,-0.790152440949023
19599,07/26/2019,21:08:11.062126,-0.137068759267104,0.576548139262168,-0.790153768673199
19639,07/26/2019,21:08:11.082126,-0.137178415938895,0.57653772749383,-0.790097622901194
19679,07/26/2019,21:08:11.102126,-0.137155687652141,0.576586272558663,-0.790023927297986
19719,07/26/2019,21:08:11.122126,-0.137090227150462,0.576650814863637,-0.790053109404146
19759,07/26/2019,21:08:11.142126,-0.137143984038337,0.57669456576431,-0.790205993945689
19799,07/26/2019,21:08:11.162126,-0.137198314341557,0.576658392011152,-0.790322080898854
19839,07/26/2019,21:08:11.182126,-0.137116269206476,0.576567433456315,-0.79029800837569
19879,07/26/2019,21:08:11.202126,-0.137063349191758,0.576543776390681,-0.790247760074578
19919,07/26/2019,21:08:11.222126,-0.137182675971617,0.576618185458138,-0.790272142297168
19959,07/26/2019,21:08:11.242126,-0.137269633316976,0.576667877009725,-0.790307705725859
19999,07/26/2019,21:08:11.262126,-0.137164590064946,0.576627890221139,-0.790309550928249
20039,07/26/2019,21:08:11.282126,-0.137062063855914,0.576582817945162,-0.790328925380005
20079,07/26/2019,21:08:11.302126,-0.137081258387609,0.576579837862661,-0.790372816478123
20119,07/26/2019,21:08:11.322126,-0.137069952790173,0.57658816396561,-0.790367391461359
20159,07/26/2019,21:08:11.342126,-0.137019417021681,0.576627100431768,-0.790267375305723
20199,07/26/2019,21:08:11.362126,-0.137056411225141,0.576669327213672,-0.790150413783884
20239,07/26/2019,21:08:11.382126,-0.137102985057426,0.57659543401206,-0.790153292559168
20279,07/26/2019,21:08:11.402126,-0.137089980730486,0.576475397123499,-0.790267355871432
20319,07/26/2019,21:08:11.422126,-0.13714729846555,0.576528976983965,-0.790347579568445
20359,07/26/2019,21:08:11.442126,-0.137254842023119,0.576673489659228,-0.790363715758969
20399,07/26/2019,21:08:11.462126,-0.137239782304309,0.576622731455403,-0.790379130849697
20439,07/26/2019,21:08:11.482126,-0.13715389442489,0.57644091443445,-0.790344802143808
20479,07/26/2019,21:08:11.502126,-0.137133008299873,0.576433828100567,-0.790240120536799
20519,07/26/2019,21:08:11.522126,-0.137120887875158,0.576586254833084,-0.790225372711061
20559,07/26/2019,21:08:11.542126,-0.137077072976619,0.576629312310918,-0.790353422877718
20599,07/26/2019,21:08:11.562126,-0.137073284858741,0.5765346703716,-0.790419559270008
20639,07/26/2019,21:08:11.582126,-0.137076404137131,0.576501823621428,-0.790312689209198
20679,07/26/2019,21:08:11.602126,-0.137004496465789,0.576557133052548,-0.790189354510754
20719,07/26/2019,21:08:11.622126,-0.136927266328607,0.576556505945538,-0.790187064884887
20759,07/26/2019,21:08:11.642126,-0.136957007036857,0.576514033080075,-0.790265586203102
20799,07/26/2019,21:08:11.662126,-0.13705541975531,0.576533126801843,-0.790345244144893
20839,07/26/2019,21:08:11.682126,-0.137091757098435,0.576539923645329,-0.790376442344178
20879,07/26/2019,21:08:11.702126,-0.137034692463567,0.57648043185457,-0.790344684624954
20919,07/26/2019,21:08:11.722126,-0.136984225632606,0.576487314277297,-0.79031976250655
20959,07/26/2019,21:08:11.742126,-0.137003460487174,0.57655030521622,-0.79037001005931
20999,07/26/2019,21:08:11.762126,-0.137033155631924,0.576513276225557,-0.790439156052416
21039,07/26/2019,21:08:11.782126,-0.13701377828636,0.576473153498799,-0.790437608665441
21079,07/26/2019,21:08:11.802126,-0.136984405017044,0.576587550670737,-0.790355238033061
21119,07/26/2019,21:08:11.822126,-0.13701311022879,0.576696357457024,-0.790239612872904
21159,07/26/2019,21:08:11.842126,-0.137088070746739,0.576662107656543,-0.79018878083918
21199,07/26/2019,21:08:11.862126,-0.13714306199042,0.576656854829498,-0.790271325690706
21239,07/26/2019,21:08:11.882126,-0.137165811758891,0.576769897729335,-0.790376434456931
21279,07/26/2019,21:08:11.902126,-0.137174022678797,0.576826899947818,-0.790357944061554
21319,07/26/2019,21:08:11.922126,-0.137141201697698,0.576749998879505,-0.790286508025364
21359,07/26/2019,21:08:11.942126,-0.137074895791891,0.576674675450332,-0.790288175567874
21399,07/26/2019,21:08:11.962126,-0.137037408622854,0.576671941739952,-0.790310082598925
21439,07/26/2019,21:08:11.982126,-0.137025843752121,0.576663007717317,-0.790286751393504
21479,07/26/2019,21:08:12.002126,-0.137016498146556,0.576614895041208,-0.790269756978031
21519,07/26/2019,21:08:12.022126,-0.137043274941081,0.576588885701581,-0.790271975273365
21559,07/26/2019,21:08:12.042126,-0.13706917242553,0.576594176828552,-0.790266922536645
21599,07/26/2019,21:08:12.062126,-0.137017824090191,0.576590200408875,-0.790296709414569
21639,07/26/2019,21:08:12.082126,-0.136986161479047,0.576599105435924,-0.790364245182497
21679,07/26/2019,21:08:12.102126,-0.137090735380555,0.576640414226775,-0.790391220250932
21719,07/26/2019,21:08:12.122126,-0.137180557113033,0.576643315322712,-0.790364990401146
21759,07/26/2019,21:08:12.142126,-0.137074333330535,0.576567629128703,-0.79033352855676
21799,07/26/2019,21:08:12.162126,-0.136934372812056,0.576501930274198,-0.790313998067901
21839,07/26/2019,21:08:12.182126,-0.137016913881506,0.576529772088225,-0.790309222856074
21879,07/26/2019,21:08:12.202126,-0.137200700702194,0.57658291264659,-0.790299468087966
21919,07/26/2019,21:08:12.222126,-0.137193611201701,0.576556944241726,-0.790270141982679
21959,07/26/2019,21:08:12.242126,-0.137056901473683,0.576520007867408,-0.790295356176689
21999,07/26/2019,21:08:12.262126,-0.137032974272545,0.576586766918873,-0.790402157284652
22039,07/26/2019,21:08:12.282126,-0.137078202570147,0.576656486437308,-0.790442358495896
22079,07/26/2019,21:08:12.302126,-0.137063769081108,0.576596901775386,-0.790340760312156
22119,07/26/2019,21:08:12.322126,-0.137070863621671,0.576520407898851,-0.790254886461267
22159,07/26/2019,21:08:12.342126,-0.137121019692283,0.576550299186428,-0.790295596341767
22199,07/26/2019,21:08:12.362126,-0.137110164239746,0.576615539927496,-0.790363518782172
22239,07/26/2019,21:08:12.382126,-0.137109809993273,0.57667036957725,-0.790362705353463
22279,07/26/2019,21:08:12.402126,-0.137209332514095,0.576728543129999,-0.790318886282596
22319,07/26/2019,21:08:12.422126,-0.137243409640472,0.576706770839998,-0.790265866507921
22359,07/26/2019,21:08:12.442126,-0.137106425851149,0.576600855024631,-0.79021108371488
22399,07/26/2019,21:08:12.462126,-0.136980333721408,0.576588743840873,-0.790199188048856
22439,07/26/2019,21:08:12.482126,-0.136988006987242,0.576692583336018,-0.790283807561816
22479,07/26/2019,21:08:12.502126,-0.137016259836299,0.576683373693547,-0.79042659811431
22519,07/26/2019,21:08:12.522126,-0.136995322304764,0.576504973435901,-0.79047929946604
22559,07/26/2019,21:08:12.542126,-0.136998556042996,0.576417606018144,-0.790340981835877
22599,07/26/2019,21:08:12.562126,-0.137027840667621,0.576545273462324,-0.790138471076608
22639,07/26/2019,21:08:12.582126,-0.136998542296704,0.576659533338297,-0.790103946695542
22679,07/26/2019,21:08:12.602126,-0.136957665110327,0.576629867353822,-0.790253949298005
22719,07/26/2019,21:08:12.622126,-0.137040440273582,0.576657481074457,-0.790396012345836
22759,07/26/2019,21:08:12.642126,-0.137179308644581,0.576796674732745,-0.790420529309724
22799,07/26/2019,21:08:12.662126,-0.137163256504618,0.576782068143633,-0.790347213183385
22839,07/26/2019,21:08:12.682126,-0.137028182941019,0.576600551119041,-0.790216394725847
22879,07/26/2019,21:08:12.702126,-0.137008485580377,0.57659386851963,-0.790148131340764
22919,07/26/2019,21:08:12.722126,-0.137084009252824,0.576798324310679,-0.790256598750462
22959,07/26/2019,21:08:12.742126,-0.137044663185479,0.576869163117536,-0.79039657209968
22999,07/26/2019,21:08:12.762126,-0.136939204761,0.576728275657015,-0.790356945108489
23039,07/26/2019,21:08:12.782126,-0.136939833041686,0.576634791025946,-0.790251096203644
23079,07/26/2019,21:08:12.802126,-0.136972538513166,0.576657352699883,-0.790285053121975
23119,07/26/2019,21:08:12.822126,-0.136965279024899,0.576634404459368,-0.790364081548653
23159,07/26/2019,21:08:12.842126,-0.137065808260524,0.576567812613489,-0.790349988467762
23199,07/26/2019,21:08:12.862126,-0.137238317721189,0.576602791333784,-0.790356735747726
23239,07/26/2019,21:08:12.882126,-0.137201478780088,0.576697830740347,-0.790459930417401
23279,07/26/2019,21:08:12.902126,-0.137003607790368,0.576691838370013,-0.790502436709553
23319,07/26/2019,21:08:12.922126,-0.137009569854255,0.576614440139977,-0.790384779712238
23359,07/26/2019,21:08:12.942126,-0.13720609257615,0.576591811140247,-0.790230295074394
23399,07/26/2019,21:08:12.962126,-0.137208263707938,0.576595677163539,-0.790201001435467
23439,07/26/2019,21:08:12.982126,-0.136982393070942,0.576582318573548,-0.790326259963469
23479,07/26/2019,21:08:13.002126,-0.136876333991512,0.576628987293709,-0.790479858026122
23519,07/26/2019,21:08:13.022126,-0.136971420136508,0.576731010860475,-0.790496085730204
23559,07/26/2019,21:08:13.042126,-0.13704686874274,0.576763886535022,-0.790374988078232
23599,07/26/2019,21:08:13.062126,-0.137060129695047,0.576695329711517,-0.790282690236537
23639,07/26/2019,21:08:13.082126,-0.13711274324011,0.576600795189368,-0.790287224794589
23679,07/26/2019,21:08:13.102126,-0.137155475335347,0.576562092478596,-0.790278055239536
23719,07/26/2019,21:08:13.122126,-0.137110511799571,0.576623751616208,-0.790207301490694
23759,07/26/2019,21:08:13.142126,-0.137030805632922,0.576713227829542,-0.790172916685345
23799,07/26/2019,21:08:13.162126,-0.136978892127794,0.576707593523991,-0.790208455093579
23839,07/26/2019,21:08:13.182126,-0.136973935083778,0.576643559819283,-0.790242030072216
23879,07/26/2019,21:08:13.202126,-0.137029021864857,0.576635766699058,-0.790280418285376
23919,07/26/2019,21:08:13.222126,-0.137099732282895,0.576632511823436,-0.790379800714811
23959,07/26/2019,21:08:13.242126,-0.137102384413612,0.576530442274357,-0.790460607417091
23999,07/26/2019,21:08:13.262126,-0.137022069819632,0.576434042877243,-0.790401872813794
24039,07/26/2019,21:08:13.282126,-0.136919631258047,0.576512529859413,-0.790282360208846
24079,07/26/2019,21:08:13.302126,-0.13687187352355,0.576670137074106,-0.790296466201146
24119,07/26/2019,21:08:13.322126,-0.136933589321058,0.57665742478445,-0.790446861041685
24159,07/26/2019,21:08:13.342126,-0.137075958758212,0.576488992723668,-0.790529557889747
24199,07/26/2019,21:08:13.362126,-0.137176916683118,0.576422659783403,-0.790437292795412
24239,07/26/2019,21:08:13.382126,-0.137167978152646,0.576523608066259,-0.790290623953201
24279,07/26/2019,21:08:13.402126,-0.137115157041932,0.576600056188628,-0.7902424661057
24319,07/26/2019,21:08:13.422126,-0.137063143824611,0.576560386007038,-0.790302552242333
24359,07/26/2019,21:08:13.442126,-0.136983700684745,0.576510246880023,-0.790369448555396
24399,07/26/2019,21:08:13.462126,-0.136951783687665,0.576521859965519,-0.790362393625132
24439,07/26/2019,21:08:13.482126,-0.13708047627178,0.576550153557128,-0.790325129178988
24479,07/26/2019,21:08:13.502126,-0.137260974035552,0.57656000008579,-0.790349562541804
24519,07/26/2019,21:08:13.522126,-0.13728702578589,0.576573755728507,-0.790393179669905
24559,07/26/2019,21:08:13.542126,-0.137164778746148,0.576579494887955,-0.790360023004931
24599,07/26/2019,21:08:13.562126,-0.137048376710973,0.576543276530662,-0.790325832976619
24639,07/26/2019,21:08:13.582126,-0.137016361924982,0.576540012637166,-0.790403432733171
24679,07/26/2019,21:08:13.602126,-0.13704688138584,0.576646545289588,-0.790504994593587
24719,07/26/2019,21:08:13.622126,-0.137087914127218,0.576721925380933,-0.790507437625711
24759,07/26/2019,21:08:13.642126,-0.137124453478088,0.576617599242672,-0.790438722196044
24799,07/26/2019,21:08:13.662126,-0.137177544325667,0.576477863601274,-0.790354473772501
24839,07/26/2019,21:08:13.682126,-0.137212936337425,0.576481097096927,-0.79030025368499
24879,07/26/2019,21:08:13.702126,-0.137192701053479,0.576543808870745,-0.790364997690669
24919,07/26/2019,21:08:13.722126,-0.137187121062775,0.576554277330699,-0.79052991202266
24959,07/26/2019,21:08:13.742126,-0.137223047635507,0.576569652430646,-0.790620174717329
24999,07/26/2019,21:08:13.762126,-0.137202690716258,0.576638544326455,-0.790535841257119
25039,07/26/2019,21:08:13.782126,-0.137138983337791,0.576698064993799,-0.79037126669199
25079,07/26/2019,21:08:13.802126,-0.137143108810626,0.576687653875066,-0.790297648264456
25119,07/26/2019,21:08:13.822126,-0.137165814116449,0.576644055768584,-0.790375353265506
25159,07/26/2019,21:08:13.842126,-0.137110565546696,0.576650315280467,-0.790461567796169
25199,07/26/2019,21:08:13.862126,-0.137034399256794,0.576684871816504,-0.790412421701647
25239,07/26/2019,21:08:13.882126,-0.136990594909937,0.576650665989366,-0.790308721089847
25279,07/26/2019,21:08:13.902126,-0.136944103349268,0.576596264087956,-0.790281029531655
25319,07/26/2019,21:08:13.922126,-0.136916603156722,0.576653795458831,-0.790316262002499
25359,07/26/2019,21:08:13.942126,-0.13696912083339,0.576752070897925,-0.790380332532725
25399,07/26/2019,21:08:13.962126,-0.137067871554497,0.576701782481104,-0.790439197461462
25439,07/26/2019,21:08:13.982126,-0.137105320335862,0.576530908416544,-0.790395428293765
25479,07/26/2019,21:08:14.002126,-0.137048706507745,0.576464607826589,-0.790271724138564
25519,07/26/2019,21:08:14.022126,-0.137005345495402,0.576574273661437,-0.7902405974147
25559,07/26/2019,21:08:14.042126,-0.137057317089751,0.576638320779047,-0.790334047280143
25599,07/26/2019,21:08:14.062126,-0.13712570193512,0.576486422011787,-0.790412283610873
25639,07/26/2019,21:08:14.082126,-0.137130955713675,0.576331952258621,-0.790405331926361
25679,07/26/2019,21:08:14.102126,-0.137091334607332,0.576429195848796,-0.790340594294011
25719,07/26/2019,21:08:14.122126,-0.13701684291331,0.576592860026999,-0.790238113149917
25759,07/26/2019,21:08:14.142126,-0.136977567490186,0.57654967877238,-0.790151344680573
25799,07/26/2019,21:08:14.162126,-0.137094092644045,0.576443278669061,-0.790192141516441
25839,07/26/2019,21:08:14.182126,-0.137227751295773,0.576470104662096,-0.790355139814263
25879,07/26/2019,21:08:14.202126,-0.137140925152858,0.576509321829999,-0.790427076215831
25919,07/26/2019,21:08:14.222126,-0.137008069108876,0.576497806477716,-0.790291941621733
25959,07/26/2019,21:08:14.242126,-0.137099273318396,0.57655148255531,-0.79016418789492
25999,07/26/2019,21:08:14.262126,-0.137200377690267,0.576601716984642,-0.790205508775646
26039,07/26/2019,21:08:14.282126,-0.137078747326308,0.576547161246241,-0.790218682913806
26079,07/26/2019,21:08:14.302126,-0.137003109001332,0.576560436680905,-0.790104487958738
26119,07/26/2019,21:08:14.322126,-0.137157067583971,0.576711880126409,-0.790127881877661
26159,07/26/2019,21:08:14.342126,-0.137243907938111,0.576757167080034,-0.790350581574019
26199,07/26/2019,21:08:14.362126,-0.137129459671155,0.576649636486287,-0.790429542516554
26239,07/26/2019,21:08:14.382126,-0.137087879022936,0.576646292200612,-0.790256837123656
26279,07/26/2019,21:08:14.402126,-0.137174834944555,0.576752696613017,-0.790138578161645
26319,07/26/2019,21:08:14.422126,-0.137153565911712,0.576726011068829,-0.790224822975011
26359,07/26/2019,21:08:14.442126,-0.137059607292364,0.576608577453055,-0.790335702937618
26399,07/26/2019,21:08:14.462126,-0.137086136586664,0.57661665451955,-0.790324054875691
26439,07/26/2019,21:08:14.482126,-0.137109830113767,0.576667686649124,-0.790225298756758
26479,07/26/2019,21:08:14.502126,-0.136993287226652,0.57659629191478,-0.790144745242565
26519,07/26/2019,21:08:14.522126,-0.1369395151316,0.576530563577545,-0.790156311142053
26559,07/26/2019,21:08:14.542126,-0.13703431576654,0.576571642930475,-0.790226108092927
26599,07/26/2019,21:08:14.562126,-0.137049592918385,0.576540197809913,-0.790258250412829
26639,07/26/2019,21:08:14.582126,-0.136985959475085,0.576398975072797,-0.790242911222282
26679,07/26/2019,21:08:14.602126,-0.137062232834634,0.576392026878083,-0.790239189377689
26719,07/26/2019,21:08:14.622126,-0.137159487897794,0.57655574435252,-0.790256006886654
26759,07/26/2019,21:08:14.642126,-0.137056043403469,0.576656996400129,-0.790278286330466
26799,07/26/2019,21:08:14.662126,-0.136947504786879,0.576646576471589,-0.790298124022871
26839,07/26/2019,21:08:14.682126,-0.137051547021771,0.576638927814809,-0.790253165714282
26879,07/26/2019,21:08:14.702126,-0.137173346003255,0.576604417934456,-0.790117827088963
26919,07/26/2019,21:08:14.722126,-0.137134691094717,0.576530132465043,-0.790033134936337
26959,07/26/2019,21:08:14.742126,-0.137060680461065,0.576559538974865,-0.790113025811336
26999,07/26/2019,21:08:14.762126,-0.137040090858253,0.576679176614876,-0.790238586389204
27039,07/26/2019,21:08:14.782126,-0.137036559828072,0.576690871982438,-0.790278318135913
27079,07/26/2019,21:08:14.802126,-0.137076238731185,0.576591931628074,-0.790297674343768
27119,07/26/2019,21:08:14.822126,-0.137149567681723,0.576553420228842,-0.790341593944802
27159,07/26/2019,21:08:14.842126,-0.137165407141646,0.576591283431202,-0.790297015752057
27199,07/26/2019,21:08:14.862126,-0.137134681998424,0.576605739684601,-0.790154194480226
27239,07/26/2019,21:08:14.882126,-0.137103915175465,0.576596401848817,-0.790088878062416
27279,07/26/2019,21:08:14.902126,-0.137024270208104,0.576615137147161,-0.790134441476976
27319,07/26/2019,21:08:14.922126,-0.136938547712765,0.57664471196696,-0.790119086388263
27359,07/26/2019,21:08:14.942126,-0.137003868163842,0.576636607525888,-0.790043855023565
27399,07/26/2019,21:08:14.962126,-0.137168604631821,0.576584181245104,-0.790100163557867
27439,07/26/2019,21:08:14.982126,-0.137195784800303,0.576511610707852,-0.79023872547003
27479,07/26/2019,21:08:15.002126,-0.13707479782851,0.576442424781665,-0.790234412031903
27519,07/26/2019,21:08:15.022126,-0.137022037076138,0.576425852436405,-0.790166220141315
27559,07/26/2019,21:08:15.042126,-0.137072118425694,0.576528754209072,-0.79026333674261
27599,07/26/2019,21:08:15.062126,-0.137072152161773,0.576699977059449,-0.790408136787883
27639,07/26/2019,21:08:15.082126,-0.137033672128313,0.576762727178085,-0.790348340954543
27679,07/26/2019,21:08:15.102126,-0.137077211922824,0.576684009701869,-0.790183546649728
27719,07/26/2019,21:08:15.122126,-0.137141483566464,0.576623284833611,-0.790170863151946
27759,07/26/2019,21:08:15.142126,-0.137128230277768,0.576602058970093,-0.790280266166651
27799,07/26/2019,21:08:15.162126,-0.137121501960734,0.576500791246626,-0.790309987350201
27839,07/26/2019,21:08:15.182126,-0.137163816808249,0.576396154036369,-0.7902465814712
27879,07/26/2019,21:08:15.202126,-0.137129310570761,0.576439689131141,-0.790212191891801
27919,07/26/2019,21:08:15.222126,-0.137018495176848,0.57653640699286,-0.790220723815345
27959,07/26/2019,21:08:15.242126,-0.137016685220027,0.576545011002342,-0.790237569649539
27999,07/26/2019,21:08:15.262126,-0.137143329146403,0.576504790079458,-0.790294051979359
28039,07/26/2019,21:08:15.282126,-0.13719642259334,0.576455349924672,-0.790352058496768
28079,07/26/2019,21:08:15.302126,-0.137114208667333,0.576424115793427,-0.790300685637119
28119,07/26/2019,21:08:15.322126,-0.137049808661759,0.576543280395165,-0.790195203491766
28159,07/26/2019,21:08:15.342126,-0.137037797185308,0.576779901734874,-0.790214670930636
28199,07/26/2019,21:08:15.362126,-0.136970145265797,0.576842094661185,-0.79035281176349
28239,07/26/2019,21:08:15.382126,-0.136919952044405,0.576668086793342,-0.790416401557222
28279,07/26/2019,21:08:15.402126,-0.137024098867568,0.576548958580664,-0.79031778195962
28319,07/26/2019,21:08:15.422126,-0.137123946130684,0.576598772717138,-0.790172396731295
28359,07/26/2019,21:08:15.442126,-0.137041703769242,0.576631008086405,-0.790120253883399
28399,07/26/2019,21:08:15.462126,-0.136965219197531,0.576575805834418,-0.790177960759939
28439,07/26/2019,21:08:15.482126,-0.137069642217633,0.576544559782113,-0.790280970373266
28479,07/26/2019,21:08:15.502126,-0.137169992629286,0.576577517006838,-0.790374471583209
28519,07/26/2019,21:08:15.522126,-0.137111478590166,0.576633846524073,-0.790402711260091
28559,07/26/2019,21:08:15.542126,-0.1370292531563,0.576667812165624,-0.790304729509779
28599,07/26/2019,21:08:15.562126,-0.137040414268804,0.576614944416408,-0.790125573507474
28639,07/26/2019,21:08:15.582126,-0.137088308775044,0.576493046215131,-0.790046070679218
28679,07/26/2019,21:08:15.602126,-0.137111547739094,0.576461326252471,-0.790183323054856
28719,07/26/2019,21:08:15.622126,-0.137104841495066,0.576593795645598,-0.790421825432559
28759,07/26/2019,21:08:15.642126,-0.137079945257748,0.576729894763566,-0.790539448875383
28799,07/26/2019,21:08:15.662126,-0.137069248847767,0.576723423756396,-0.790455716939029
28839,07/26/2019,21:08:15.682126,-0.137091627547285,0.576653148755619,-0.790285448838754
28879,07/26/2019,21:08:15.702126,-0.137124276390428,0.576608897545523,-0.790187309157733
28919,07/26/2019,21:08:15.722126,-0.137138685093475,0.576522504837293,-0.790211220439814
28959,07/26/2019,21:08:15.742126,-0.137112518217202,0.576411800521374,-0.790273644230071
28999,07/26/2019,21:08:15.762126,-0.137038478391478,0.576469503815882,-0.790266697418263
29039,07/26/2019,21:08:15.782126,-0.136963876344742,0.576694030545284,-0.790190409588737
29079,07/26/2019,21:08:15.802126,-0.136959638890209,0.576790296334425,-0.790141977127211
29119,07/26/2019,21:08:15.822126,-0.137037671652848,0.576641978106297,-0.790175349813816
29159,07/26/2019,21:08:15.842126,-0.137132732403215,0.576510979916611,-0.790237038644019
29199,07/26/2019,21:08:15.862126,-0.137154013356851,0.576569332746255,-0.790258953643401
29239,07/26/2019,21:08:15.882126,-0.137073266453277,0.576627108274319,-0.790249079353812
29279,07/26/2019,21:08:15.902126,-0.136966559317363,0.576545907121454,-0.790249579813021
29319,07/26/2019,21:08:15.922126,-0.136914966202702,0.576495805136966,-0.790264351411669
29359,07/26/2019,21:08:15.942126,-0.136912662153569,0.576578633109139,-0.790281727620398
29399,07/26/2019,21:08:15.962126,-0.136940444571132,0.576637798769448,-0.790304250597229
29439,07/26/2019,21:08:15.982126,-0.137003477732458,0.576582388756754,-0.79030700885172
29479,07/26/2019,21:08:16.002126,-0.137038874940942,0.576498954813573,-0.790245195089058
29519,07/26/2019,21:08:16.022126,-0.136979478217429,0.576459205205622,-0.790144744588437
29559,07/26/2019,21:08:16.042126,-0.136904733572525,0.576491378590524,-0.790117519559812
29599,07/26/2019,21:08:16.062126,-0.13689247017874,0.57658237842629,-0.790240576812365
29639,07/26/2019,21:08:16.082126,-0.136851420989622,0.576629577013358,-0.790432878804161
29679,07/26/2019,21:08:16.102126,-0.13675716066503,0.57657926234093,-0.790503681880678
29719,07/26/2019,21:08:16.122126,-0.136788129278748,0.576503829427373,-0.790375135067307
29759,07/26/2019,21:08:16.142126,-0.136986067247689,0.576458224295641,-0.79020309999558
29799,07/26/2019,21:08:16.162126,-0.137116869803675,0.576450812377065,-0.790188197932583
29839,07/26/2019,21:08:16.182126,-0.137044966996686,0.576483745412428,-0.790314410716534
29879,07/26/2019,21:08:16.202126,-0.13692804417221,0.576506609994093,-0.790392228156621
29919,07/26/2019,21:08:16.222126,-0.136937887332463,0.576499771435566,-0.79034959198814
29959,07/26/2019,21:08:16.242126,-0.137025231359921,0.576537248950971,-0.790305513236558
29999,07/26/2019,21:08:16.262126,-0.13705660050273,0.576607170455702,-0.790298043294424
30039,07/26/2019,21:08:16.282126,-0.137057281828668,0.576595616494083,-0.790211005294591
30079,07/26/2019,21:08:16.302126,-0.137127208656765,0.576519079766142,-0.790091445171378
30119,07/26/2019,21:08:16.322126,-0.137155189030994,0.576504075388167,-0.790160172801938
30159,07/26/2019,21:08:16.342126,-0.136980774147842,0.576567500885781,-0.790374942935688
30199,07/26/2019,21:08:16.362126,-0.136806120762856,0.57662669067007,-0.790436389417645
30239,07/26/2019,21:08:16.382126,-0.136906006053431,0.57664125789921,-0.790302931751403
30279,07/26/2019,21:08:16.402126,-0.137066915388646,0.576625235466911,-0.790224998485357
30319,07/26/2019,21:08:16.422126,-0.136971708628965,0.576599169307486,-0.790280390679294
30359,07/26/2019,21:08:16.442126,-0.136838085443557,0.5765824156188,-0.790321503990793
30399,07/26/2019,21:08:16.462126,-0.136986853729732,0.576588540093565,-0.790305152135553
30439,07/26/2019,21:08:16.482126,-0.137194697807523,0.576613277563502,-0.79031213991411
30479,07/26/2019,21:08:16.502126,-0.137101334384068,0.576635712990732,-0.790351343213555
30519,07/26/2019,21:08:16.522126,-0.136839407654077,0.576625567755138,-0.790381097852882
30559,07/26/2019,21:08:16.542126,-0.136770586618346,0.576571070902063,-0.790398077735587
30599,07/26/2019,21:08:16.562126,-0.136932763681702,0.576517708672999,-0.790390384257973
30639,07/26/2019,21:08:16.582126,-0.137082444971621,0.576517063819513,-0.79032303903577
30679,07/26/2019,21:08:16.602126,-0.137055978388564,0.576524488106153,-0.790212886967237
30719,07/26/2019,21:08:16.622126,-0.136893493992197,0.576478077685212,-0.790142016696243
30759,07/26/2019,21:08:16.642126,-0.136755593696878,0.576462653565143,-0.790182899872181
30799,07/26/2019,21:08:16.662126,-0.136792416048242,0.576571135718174,-0.790322829860278
30839,07/26/2019,21:08:16.682126,-0.136971122888173,0.57666212409071,-0.790449113698635
30879,07/26/2019,21:08:16.702126,-0.13707581407845,0.576566746836396,-0.790432321585196
30919,07/26/2019,21:08:16.722126,-0.13701026744187,0.576426727755047,-0.790274254382351
30959,07/26/2019,21:08:16.742126,-0.136937719627882,0.576459693094996,-0.790140721667234
30999,07/26/2019,21:08:16.762126,-0.13698164508412,0.576560957288987,-0.790170507425233
31039,07/26/2019,21:08:16.782126,-0.13703805276893,0.576531208683096,-0.790312394107666
31079,07/26/2019,21:08:16.802126,-0.137004375221475,0.57646272641362,-0.790433572890309
31119,07/26/2019,21:08:16.822126,-0.136943386707485,0.576512927985889,-0.790472627013285
31159,07/26/2019,21:08:16.842126,-0.136951443421889,0.576574807088051,-0.790426303318016
31199,07/26/2019,21:08:16.862126,-0.13703428223383,0.576507492989304,-0.790336978992711
31239,07/26/2019,21:08:16.882126,-0.13712138570219,0.576411593496514,-0.790286766030912
31279,07/26/2019,21:08:16.902126,-0.137134136264283,0.576431681384139,-0.790287853517997
31319,07/26/2019,21:08:16.922126,-0.137071653299373,0.576523172838416,-0.790301288297028
31359,07/26/2019,21:08:16.942126,-0.13702009454829,0.576567499670504,-0.790380945633059
31399,07/26/2019,21:08:16.962126,-0.137030384875632,0.576552589641212,-0.790542769123864
31439,07/26/2019,21:08:16.982126,-0.137069223297684,0.576526960682374,-0.790589360702323
31479,07/26/2019,21:08:17.002126,-0.137135120580982,0.576474494670947,-0.790395997005151
31519,07/26/2019,21:08:17.022126,-0.137235429551789,0.576370945409417,-0.790172097306143
31559,07/26/2019,21:08:17.042126,-0.137237309122271,0.576304628918135,-0.790136284769728
31599,07/26/2019,21:08:17.062126,-0.137061212614692,0.576368577680476,-0.790218803656035
31639,07/26/2019,21:08:17.082126,-0.136945342364198,0.576490993540842,-0.790296925115074
31679,07/26/2019,21:08:17.102126,-0.137084833105881,0.576538873171641,-0.790379411545803
31719,07/26/2019,21:08:17.122126,-0.137220917420251,0.576503636705017,-0.790430636090872
31759,07/26/2019,21:08:17.142126,-0.13708264138549,0.57645801250515,-0.790356918921599
31799,07/26/2019,21:08:17.162126,-0.136898856283364,0.576432775992444,-0.79022720239067
31839,07/26/2019,21:08:17.182126,-0.1369716992717,0.576426655897623,-0.79020326329494
31879,07/26/2019,21:08:17.202126,-0.137145623407337,0.576457037890518,-0.790266619449459
31919,07/26/2019,21:08:17.222126,-0.137160031582974,0.576526122914092,-0.790293643035313
31959,07/26/2019,21:08:17.242126,-0.137103302917506,0.576581835576171,-0.790311811911606
31999,07/26/2019,21:08:17.262126,-0.137135571762031,0.576589791585223,-0.790398809454916
32039,07/26/2019,21:08:17.282126,-0.137195787254212,0.576597650276795,-0.790457506284021
32079,07/26/2019,21:08:17.302126,-0.137224813468075,0.576626161241327,-0.790367121257858
32119,07/26/2019,21:08:17.322126,-0.137241737518643,0.57659608754576,-0.790228840845024
32159,07/26/2019,21:08:17.342126,-0.137171727230113,0.576499647165328,-0.790230512765997
32199,07/26/2019,21:08:17.362126,-0.137007471178364,0.576471542691235,-0.790373690330077
32239,07/26/2019,21:08:17.382126,-0.136937858074698,0.576558834099985,-0.790503562516508
32279,07/26/2019,21:08:17.402126,-0.137010139153339,0.576648736104595,-0.790539582538491
32319,07/26/2019,21:08:17.422126,-0.137036093053485,0.576662769518647,-0.790541428681584
32359,07/26/2019,21:08:17.442126,-0.136973884425523,0.576585665602646,-0.790543083627095
32399,07/26/2019,21:08:17.462126,-0.136980783924982,0.57642755612086,-0.790463632287135
32439,07/26/2019,21:08:17.482126,-0.137088991170252,0.576327904330074,-0.790299491497182
32479,07/26/2019,21:08:17.502126,-0.137160361571432,0.576417564307108,-0.790237157370971
32519,07/26/2019,21:08:17.522126,-0.137107158314291,0.576553350718842,-0.790365224316461
32559,07/26/2019,21:08:17.542126,-0.137011780001676,0.576534548467832,-0.790487933000097
32599,07/26/2019,21:08:17.562126,-0.137032683347737,0.576433110997188,-0.790450140306042
32639,07/26/2019,21:08:17.582126,-0.137152856692357,0.576401552381214,-0.790357295567801
32679,07/26/2019,21:08:17.602126,-0.137157433428436,0.5764192658396,-0.790304185681464
32719,07/26/2019,21:08:17.622126,-0.137011404933301,0.576430366800542,-0.790257984231918
32759,07/26/2019,21:08:17.642126,-0.136940531739095,0.576452249938572,-0.790280546735216
32799,07/26/2019,21:08:17.662126,-0.136990623174856,0.576481153709839,-0.790445258311691
32839,07/26/2019,21:08:17.682126,-0.13698963447402,0.576515154418892,-0.790573091605118
32879,07/26/2019,21:08:17.702126,-0.136966900479813,0.576595485153846,-0.790463923405222
32919,07/26/2019,21:08:17.722126,-0.137038301090727,0.576662955130052,-0.790255772466922
32959,07/26/2019,21:08:17.742126,-0.137068297617033,0.576579936705653,-0.790205910402243
32999,07/26/2019,21:08:17.762126,-0.13698540187126,0.576412320405856,-0.790312150958847
33039,07/26/2019,21:08:17.782126,-0.136999460239867,0.576385489598332,-0.790414948224751
33079,07/26/2019,21:08:17.802126,-0.13711527379731,0.5764989196252,-0.790453782523058
33119,07/26/2019,21:08:17.822126,-0.137064151901255,0.576550049286835,-0.79042888231312
33159,07/26/2019,21:08:17.842126,-0.136893524795908,0.576521191886004,-0.790330342912803
33199,07/26/2019,21:08:17.862126,-0.136895326028481,0.576549457239865,-0.79024617065625
33239,07/26/2019,21:08:17.882126,-0.137008522146273,0.576603258863838,-0.790307093242805
33279,07/26/2019,21:08:17.902126,-0.137001651527407,0.576553834309876,-0.790429229882407
33319,07/26/2019,21:08:17.922126,-0.136974602792339,0.576442003348907,-0.790388061594791
33359,07/26/2019,21:08:17.942126,-0.137070932938814,0.576398873541467,-0.79020451316773
33399,07/26/2019,21:08:17.962126,-0.13711781446281,0.576436191596741,-0.790134811844282
33439,07/26/2019,21:08:17.982126,-0.137010508920377,0.576484222608765,-0.790252815332331
33479,07/26/2019,21:08:18.002126,-0.136957471765268,0.576508379893168,-0.790380211573668
33519,07/26/2019,21:08:18.022126,-0.137058137135329,0.576491509961163,-0.790410040739707
33559,07/26/2019,21:08:18.042126,-0.137128762506297,0.576422526145657,-0.79037472257401
33599,07/26/2019,21:08:18.062126,-0.137066878962301,0.576367394621771,-0.790285205187351
33639,07/26/2019,21:08:18.082126,-0.136977414669374,0.576422610285243,-0.790197140024375
33679,07/26/2019,21:08:18.102126,-0.136953068320803,0.576553200372373,-0.79025608276732
33719,07/26/2019,21:08:18.122126,-0.136999549680472,0.576626052771299,-0.79044145385986
33759,07/26/2019,21:08:18.142126,-0.137073452471124,0.57660831776757,-0.79052395766252
33799,07/26/2019,21:08:18.162126,-0.13708688244601,0.57656519401558,-0.790416524588599
33839,07/26/2019,21:08:18.182126,-0.137015945108948,0.576522877637277,-0.790281941695035
33879,07/26/2019,21:08:18.202126,-0.136971927427727,0.576496334220615,-0.790256142098324
33919,07/26/2019,21:08:18.222126,-0.137024292925392,0.57652642848286,-0.790303011316067
33959,07/26/2019,21:08:18.242126,-0.137079957210106,0.576580502507149,-0.790328318314541
33999,07/26/2019,21:08:18.262126,-0.137065781272366,0.576588437279547,-0.790307086392284
34039,07/26/2019,21:08:18.282126,-0.137045666608629,0.576588773841188,-0.790286833738521
34079,07/26/2019,21:08:18.302126,-0.137053528803643,0.576640026359738,-0.79028661968832
34119,07/26/2019,21:08:18.322126,-0.137045930121812,0.576667032954542,-0.790272409916686
34159,07/26/2019,21:08:18.342126,-0.137057551015892,0.576597037376997,-0.790247001898742
34199,07/26/2019,21:08:18.362126,-0.137111533751889,0.57652748407904,-0.790231321839895
34239,07/26/2019,21:08:18.382126,-0.137069684073579,0.576571239633371,-0.79019568374541
34279,07/26/2019,21:08:18.402126,-0.136905388430824,0.576646855967,-0.790147456039715
34319,07/26/2019,21:08:18.422126,-0.136853267549822,0.576602298522042,-0.79016116349877
34359,07/26/2019,21:08:18.442126,-0.136973759718778,0.576465186554673,-0.790235998157175
34399,07/26/2019,21:08:18.462126,-0.13702478654794,0.576396539095641,-0.790299125438307
34439,07/26/2019,21:08:18.482126,-0.136970051640434,0.576450763460386,-0.790339438841717
34479,07/26/2019,21:08:18.502126,-0.137006377911039,0.576518244342989,-0.790361680612536
34519,07/26/2019,21:08:18.522126,-0.137071175734755,0.576495680191382,-0.790314162780676
34559,07/26/2019,21:08:18.542126,-0.137011537812459,0.576453686881677,-0.79021396014689
34599,07/26/2019,21:08:18.562126,-0.137009464318883,0.576534569623405,-0.790188457979031
34639,07/26/2019,21:08:18.582126,-0.137174402396061,0.576666461527377,-0.790270456787912
34679,07/26/2019,21:08:18.602126,-0.137220122659896,0.576649573699754,-0.790312629000781
34719,07/26/2019,21:08:18.622126,-0.137074162496716,0.576535935126452,-0.790219062880861
34759,07/26/2019,21:08:18.642126,-0.13706510421813,0.57650955803145,-0.790119064584225
34799,07/26/2019,21:08:18.662126,-0.137205364071637,0.576526650068576,-0.790170256194555
34839,07/26/2019,21:08:18.682126,-0.13716747130812,0.576515722933965,-0.790306027236627
34879,07/26/2019,21:08:18.702126,-0.137015422697533,0.576576875817655,-0.790362143740683
34919,07/26/2019,21:08:18.722126,-0.137081755536208,0.576675305694114,-0.790343843067431
34959,07/26/2019,21:08:18.742126,-0.137287925596939,0.576648896400365,-0.79034391614152
34999,07/26/2019,21:08:18.762126,-0.137329989822564,0.576565923389731,-0.790330901073996
35039,07/26/2019,21:08:18.782126,-0.137236730023421,0.576567706315948,-0.790264605017977
35079,07/26/2019,21:08:18.802126,-0.137209998354562,0.576575272172296,-0.7902462748689
35119,07/26/2019,21:08:18.822126,-0.137247958986371,0.576512363977718,-0.790328544812785
35159,07/26/2019,21:08:18.842126,-0.137239567470168,0.576471522052866,-0.790392215319104
35199,07/26/2019,21:08:18.862126,-0.137160789511026,0.576495803208033,-0.790363228298473
35239,07/26/2019,21:08:18.882126,-0.137058438294273,0.576500145869322,-0.790308437125412
35279,07/26/2019,21:08:18.902126,-0.13700126846307,0.57644514715086,-0.790270302227729
35319,07/26/2019,21:08:18.922126,-0.137034077245289,0.576415241629011,-0.790246383949305
35359,07/26/2019,21:08:18.942126,-0.137104984838529,0.576474692229047,-0.790273408072416
35399,07/26/2019,21:08:18.962126,-0.137112824529123,0.576522644406795,-0.790338930291942
35439,07/26/2019,21:08:18.982126,-0.137062520208046,0.576455313371524,-0.790352892665342
35479,07/26/2019,21:08:19.002126,-0.13704845704243,0.576384035155663,-0.790314664949433
35519,07/26/2019,21:08:19.022126,-0.137059797164434,0.576432800261969,-0.79030915941665
35559,07/26/2019,21:08:19.042126,-0.137020170482882,0.576513888612348,-0.790327972419062
35599,07/26/2019,21:08:19.062126,-0.137004100830868,0.576537113703778,-0.79030949053685
35639,07/26/2019,21:08:19.082126,-0.137080601454257,0.576534271230049,-0.790284892370478
35679,07/26/2019,21:08:19.102126,-0.137089269584542,0.576509908301828,-0.790310037028168
35719,07/26/2019,21:08:19.122126,-0.136980839632331,0.57649587653957,-0.790358791016849
35759,07/26/2019,21:08:19.142126,-0.137009166959971,0.576583122151547,-0.79037119955076
35799,07/26/2019,21:08:19.162126,-0.137189220054253,0.576680945736395,-0.790326833576829
35839,07/26/2019,21:08:19.182126,-0.137183913794982,0.57661677550574,-0.79026590680914
35879,07/26/2019,21:08:19.202126,-0.137009500703639,0.576504779543266,-0.790252116566078
35919,07/26/2019,21:08:19.222126,-0.137035480949031,0.57655058634493,-0.790290243402133
35959,07/26/2019,21:08:19.242126,-0.13720069167141,0.576640742323042,-0.790321926565201
35999,07/26/2019,21:08:19.262126,-0.137156136173729,0.576579427162888,-0.790311656486705
36039,07/26/2019,21:08:19.282126,-0.137030580151585,0.576477483376627,-0.790289326030806
36079,07/26/2019,21:08:19.302126,-0.137123807232826,0.5765172085723,-0.790294168728618
36119,07/26/2019,21:08:19.322126,-0.13723275940799,0.576609499200849,-0.790293481741708
36159,07/26/2019,21:08:19.342126,-0.137105083576899,0.576604579560907,-0.790236359116142
36199,07/26/2019,21:08:19.362126,-0.136976968873297,0.576570095742119,-0.790186544231204
36239,07/26/2019,21:08:19.382126,-0.137042283627144,0.576587966609399,-0.790238778810154
36279,07/26/2019,21:08:19.402126,-0.137085188507599,0.576562678137771,-0.790344726408548
36319,07/26/2019,21:08:19.422126,-0.137015846622152,0.576466164514941,-0.790403256653361
36359,07/26/2019,21:08:19.442126,-0.137052497615597,0.57644059141634,-0.790393420317127
36399,07/26/2019,21:08:19.462126,-0.137203966334608,0.576494607625716,-0.790308565861208
36439,07/26/2019,21:08:19.482126,-0.137232662003151,0.576493280041007,-0.790171953454975
36479,07/26/2019,21:08:19.502126,-0.137140138663578,0.576478452734683,-0.790114022828402
36519,07/26/2019,21:08:19.522126,-0.137116782891347,0.576558875115675,-0.79020517102604
36559,07/26/2019,21:08:19.542126,-0.137143430917066,0.576627856965131,-0.790319882862084
36599,07/26/2019,21:08:19.562126,-0.13712521301492,0.576588870883945,-0.790335432216066
36639,07/26/2019,21:08:19.582126,-0.137137126900972,0.576547630792195,-0.790284604232289
36679,07/26/2019,21:08:19.602126,-0.137181243366665,0.576542407407424,-0.790227893282706
36719,07/26/2019,21:08:19.622126,-0.137127942308639,0.576508693311805,-0.790174134074585
36759,07/26/2019,21:08:19.642126,-0.137046266163518,0.576514170110135,-0.790151915979481
36799,07/26/2019,21:08:19.662126,-0.137081196119073,0.576600353539315,-0.790204034192032
36839,07/26/2019,21:08:19.682126,-0.137120201388467,0.576612540130985,-0.790300048225066
36879,07/26/2019,21:08:19.702126,-0.137050346476404,0.576501731986619,-0.790331560754815
36919,07/26/2019,21:08:19.722126,-0.137002479657796,0.576435393631402,-0.790242490466137
36959,07/26/2019,21:08:19.742126,-0.137060495956916,0.576469868673205,-0.790148597073637
36999,07/26/2019,21:08:19.762126,-0.137154378849798,0.576490948240421,-0.790198572674262
37039,07/26/2019,21:08:19.782126,-0.137242044262549,0.576466295120154,-0.790318516487406
37079,07/26/2019,21:08:19.802126,-0.1372651403987,0.576461614311394,-0.790324424345956
37119,07/26/2019,21:08:19.822126,-0.137171111056561,0.576486423675303,-0.790254117098437
37159,07/26/2019,21:08:19.842126,-0.137090057767358,0.576496364343312,-0.790271775092297
37199,07/26/2019,21:08:19.862126,-0.137135757295145,0.576479882774369,-0.790329435272711
37239,07/26/2019,21:08:19.882126,-0.137177357790728,0.57646692269022,-0.79027590109309
37279,07/26/2019,21:08:19.902126,-0.137124271028514,0.576486548760705,-0.790171919967439
37319,07/26/2019,21:08:19.922126,-0.137104854696096,0.576542171845245,-0.790177372161269
37359,07/26/2019,21:08:19.942126,-0.137165647767948,0.576597107323088,-0.790275458000112
37399,07/26/2019,21:08:19.962126,-0.137186848635529,0.576584484716316,-0.790333093030755
37439,07/26/2019,21:08:19.982126,-0.137155297795617,0.576499046599478,-0.790291558389976
37479,07/26/2019,21:08:20.002126,-0.137148812158877,0.576450459647886,-0.790196890675492
37519,07/26/2019,21:08:20.022126,-0.137104653824791,0.57651368256686,-0.790146784679604
37559,07/26/2019,21:08:20.042126,-0.136952975013432,0.576591252774479,-0.790191915013917
37599,07/26/2019,21:08:20.062126,-0.136855197945378,0.576570084959439,-0.790254275626718
37639,07/26/2019,21:08:20.082126,-0.136962911161172,0.576521267092485,-0.790246979293294
37679,07/26/2019,21:08:20.102126,-0.137108575393174,0.576563842786604,-0.790223761557221
37719,07/26/2019,21:08:20.122126,-0.137077835360341,0.576632134537373,-0.790255049319934
37759,07/26/2019,21:08:20.142126,-0.136974018624722,0.576589406408916,-0.790283342861861
37799,07/26/2019,21:08:20.162126,-0.136990181474499,0.576468479246114,-0.790255958761862
37839,07/26/2019,21:08:20.182126,-0.137076185012529,0.576395634821699,-0.790226744017586
37879,07/26/2019,21:08:20.202126,-0.137109973141546,0.576409869655899,-0.790225571174199
37919,07/26/2019,21:08:20.222126,-0.137118475687288,0.576496733748052,-0.79020958969491
37959,07/26/2019,21:08:20.242126,-0.137123685353554,0.576608736276006,-0.790168347308551
37999,07/26/2019,21:08:20.262126,-0.137066932996008,0.576619885014491,-0.790141451111197
38039,07/26/2019,21:08:20.282126,-0.137001583889531,0.576491429696242,-0.790165957803958
38079,07/26/2019,21:08:20.302126,-0.137048616708216,0.576383375911555,-0.790245215358423
38119,07/26/2019,21:08:20.322126,-0.137142797730105,0.57638998641668,-0.790316705894607
38159,07/26/2019,21:08:20.342126,-0.137138212828488,0.576406066716234,-0.790305900937797
38199,07/26/2019,21:08:20.362126,-0.137079412445203,0.576394132990765,-0.790240133558614
38239,07/26/2019,21:08:20.382126,-0.137076769024302,0.576433845632164,-0.790213090697737
38279,07/26/2019,21:08:20.402126,-0.137091141654742,0.576480783292147,-0.790254829464327
38319,07/26/2019,21:08:20.422126,-0.137071130250899,0.576447510531553,-0.790321941181757
38359,07/26/2019,21:08:20.442126,-0.13708220427093,0.576407989058273,-0.790369413939808
38399,07/26/2019,21:08:20.462126,-0.137158238704673,0.57642641645374,-0.790371632355761
38439,07/26/2019,21:08:20.482126,-0.137216804080304,0.576425791899752,-0.790323115918701
38479,07/26/2019,21:08:20.502126,-0.137189426267618,0.576397367586268,-0.790279291427788
38519,07/26/2019,21:08:20.522126,-0.137128680399859,0.576450640654926,-0.79034053609591
38559,07/26/2019,21:08:20.542126,-0.137134179451478,0.576590134481845,-0.790502901570082
38599,07/26/2019,21:08:20.562126,-0.137185823738834,0.576677950013375,-0.790589003726322
38639,07/26/2019,21:08:20.582126,-0.13714962446135,0.576633565464934,-0.790453910267043
38679,07/26/2019,21:08:20.602126,-0.137009352974553,0.57654519480846,-0.790216415953772
38719,07/26/2019,21:08:20.622126,-0.136934147855003,0.576549197883256,-0.790147458199285
38759,07/26/2019,21:08:20.642126,-0.13701194970149,0.576622136233754,-0.790307462987599
38799,07/26/2019,21:08:20.662126,-0.137108032501284,0.576613169498046,-0.790449676554272
38839,07/26/2019,21:08:20.682126,-0.137107378434357,0.576529530522571,-0.790391898904555
38879,07/26/2019,21:08:20.702126,-0.137070801449937,0.576541110787309,-0.790277139848921
38919,07/26/2019,21:08:20.722126,-0.137039677148604,0.576630641324273,-0.790285866363092
38959,07/26/2019,21:08:20.742126,-0.136975146396475,0.576598735579149,-0.790352953857451
38999,07/26/2019,21:08:20.762126,-0.136952044569665,0.576450403834715,-0.790367592117316
39039,07/26/2019,21:08:20.782126,-0.137058916137512,0.576380257393959,-0.790372064037848
39079,07/26/2019,21:08:20.802126,-0.137159943782087,0.576423867852434,-0.790397547520083
39119,07/26/2019,21:08:20.822126,-0.13712006099657,0.576469246226148,-0.790369752125291
39159,07/26/2019,21:08:20.842126,-0.137059171578522,0.576485371037566,-0.790298582096219
39199,07/26/2019,21:08:20.862126,-0.137094706425979,0.576491991702173,-0.790309160277821
39239,07/26/2019,21:08:20.882126,-0.137144230532719,0.576461684636208,-0.790392437785716
39279,07/26/2019,21:08:20.902126,-0.137132221408986,0.576406852519384,-0.790382885559335
39319,07/26/2019,21:08:20.922126,-0.137092243026048,0.576409123562169,-0.790258975867261
39359,07/26/2019,21:08:20.942126,-0.137066683908847,0.576473411595138,-0.79020513229379
39399,07/26/2019,21:08:20.962126,-0.137090793309387,0.576516078291284,-0.790321231462791
39439,07/26/2019,21:08:20.982126,-0.137164451645804,0.576521720327395,-0.790494944117032
39479,07/26/2019,21:08:21.002126,-0.137203410746843,0.576517141485993,-0.790582252891005
39519,07/26/2019,21:08:21.022126,-0.137171382424031,0.576477486325966,-0.79055723477645
39559,07/26/2019,21:08:21.042126,-0.13716064857468,0.576454955754684,-0.7904813753216
39599,07/26/2019,21:08:21.062126,-0.137188434261048,0.576532384451938,-0.790409032214199
39639,07/26/2019,21:08:21.082126,-0.137124878802162,0.576551849678693,-0.790350977920962
39679,07/26/2019,21:08:21.102126,-0.136980286901362,0.576375007858085,-0.790327734117244
39719,07/26/2019,21:08:21.122126,-0.136961407237015,0.576287496563192,-0.79038560351576
39759,07/26/2019,21:08:21.142126,-0.137080695770959,0.576495439549082,-0.79047573122287
39799,07/26/2019,21:08:21.162126,-0.137108496217009,0.576639494700359,-0.790435653476827
39839,07/26/2019,21:08:21.182126,-0.137044880171063,0.576476379517464,-0.790263124698192
39879,07/26/2019,21:08:21.202126,-0.137116347393206,0.57634851953957,-0.790211439723862
39919,07/26/2019,21:08:21.222126,-0.137254318009826,0.576449619321987,-0.79035333470483
39959,07/26/2019,21:08:21.242126,-0.137208454920721,0.576495334168575,-0.790391528105919
39999,07/26/2019,21:08:21.262126,-0.137077647321698,0.57642655327964,-0.790218612395033
40039,07/26/2019,21:08:21.282126,-0.137070668386776,0.576519738855158,-0.79013908118205
40079,07/26/2019,21:08:21.302126,-0.137071452008759,0.576708733497653,-0.790253441579771
40119,07/26/2019,21:08:21.322126,-0.137026897583365,0.576656862374609,-0.790299186479244
40159,07/26/2019,21:08:21.342126,-0.137158548499731,0.576430082923148,-0.79022989438235
40199,07/26/2019,21:08:21.362126,-0.137358800273459,0.576358428841708,-0.790229164570468
40239,07/26/2019,21:08:21.382126,-0.137230574027556,0.576426571453223,-0.790254991232798
40279,07/26/2019,21:08:21.402126,-0.136935788808813,0.576414655944301,-0.790204133342321
40319,07/26/2019,21:08:21.422126,-0.136987794173893,0.576359922661087,-0.79020589630155
40359,07/26/2019,21:08:21.442126,-0.137254856814801,0.576395253081273,-0.790320164283572
40399,07/26/2019,21:08:21.462126,-0.137249084917821,0.576453164867116,-0.790390693407989
40439,07/26/2019,21:08:21.482126,-0.137090695483496,0.576454722858636,-0.790371971561899
40479,07/26/2019,21:08:21.502126,-0.137141172436361,0.576457428169309,-0.790348728582362
40519,07/26/2019,21:08:21.522126,-0.137209896087976,0.576470552733999,-0.790305829760368
40559,07/26/2019,21:08:21.542126,-0.13704858480761,0.576448982471339,-0.790252380206022
40599,07/26/2019,21:08:21.562126,-0.136946208206333,0.576447889232499,-0.790325584949594
40639,07/26/2019,21:08:21.582126,-0.137102183482499,0.576506456076738,-0.790504271954014
40679,07/26/2019,21:08:21.602126,-0.137206865386999,0.576532594496172,-0.79054071212553
40719,07/26/2019,21:08:21.622126,-0.137127928739921,0.576487005802789,-0.79036625644858
40759,07/26/2019,21:08:21.642126,-0.137131727362184,0.576450811554334,-0.790240955718555
40799,07/26/2019,21:08:21.662126,-0.137212044832093,0.576445788669297,-0.790331870875786
40839,07/26/2019,21:08:21.682126,-0.137115492232281,0.576424952606464,-0.790453797091661
40879,07/26/2019,21:08:21.702126,-0.136969748367318,0.576399495138665,-0.790412536048713
40919,07/26/2019,21:08:21.722126,-0.13702521430379,0.57640176045891,-0.790294574941767
40959,07/26/2019,21:08:21.742126,-0.137095565115527,0.57642566176505,-0.790244701070663
40999,07/26/2019,21:08:21.762126,-0.136976759767547,0.576464370031584,-0.790270392615994
41039,07/26/2019,21:08:21.782126,-0.136911563118821,0.576491716785721,-0.790348875845243
41079,07/26/2019,21:08:21.802126,-0.137093866118775,0.576452153882825,-0.790429119543704
41119,07/26/2019,21:08:21.822126,-0.137267403944331,0.576361641741476,-0.790385000429749
41159,07/26/2019,21:08:21.842126,-0.13718247694032,0.576328064996312,-0.790213494269047
41199,07/26/2019,21:08:21.862126,-0.136986445680991,0.576411820909601,-0.790113534385807
41239,07/26/2019,21:08:21.882126,-0.136936286084575,0.576526918617817,-0.790210036612385
41279,07/26/2019,21:08:21.902126,-0.137035449319715,0.576536038604415,-0.79038160357376
41319,07/26/2019,21:08:21.922126,-0.137116029016879,0.576453184258939,-0.790428033287583
41359,07/26/2019,21:08:21.942126,-0.137123853169998,0.576445834397018,-0.790302058101534
41399,07/26/2019,21:08:21.962126,-0.137151224313093,0.576563369339953,-0.790155782706946
41439,07/26/2019,21:08:21.982126,-0.137208469407768,0.576648848799654,-0.79015040876698
41479,07/26/2019,21:08:22.002126,-0.137172168787028,0.576610427250677,-0.790266090436413
41519,07/26/2019,21:08:22.022126,-0.137041012480572,0.576541155797299,-0.790397671931957
41559,07/26/2019,21:08:22.042126,-0.137006218893834,0.5765079343787,-0.790505127312486
41599,07/26/2019,21:08:22.062126,-0.137128914667457,0.576459260415139,-0.790530673107046
41639,07/26/2019,21:08:22.082126,-0.137207891836758,0.576376677859436,-0.790392717847036
41679,07/26/2019,21:08:22.102126,-0.13713526195982,0.576336361882,-0.790197477048248
41719,07/26/2019,21:08:22.122126,-0.137079892051039,0.576385309911241,-0.790190025686763
41759,07/26/2019,21:08:22.142126,-0.137131085628484,0.576464095179118,-0.790396593047676
41799,07/26/2019,21:08:22.162126,-0.13713584123179,0.576493416328878,-0.790564207730096
41839,07/26/2019,21:08:22.182126,-0.137069194479433,0.576466479841878,-0.7904999691503
41879,07/26/2019,21:08:22.202126,-0.137097691567681,0.576424681935212,-0.790272260472611
41919,07/26/2019,21:08:22.222126,-0.137171417666593,0.576413583681788,-0.790087276200155
41959,07/26/2019,21:08:22.242126,-0.137105597586565,0.576459864497806,-0.790098617190807
41999,07/26/2019,21:08:22.262126,-0.137013697496573,0.576521299696097,-0.790282833928117
42039,07/26/2019,21:08:22.282126,-0.137080524814176,0.576522108909995,-0.790457676720265
42079,07/26/2019,21:08:22.302126,-0.137154458047064,0.576494556722562,-0.790492388890837
42119,07/26/2019,21:08:22.322126,-0.137076752787712,0.576550908908669,-0.790420900600664
42159,07/26/2019,21:08:22.342126,-0.137019444726568,0.57665358832047,-0.790311089481494
42199,07/26/2019,21:08:22.362126,-0.137136422912499,0.576620988246958,-0.790236787990758
42239,07/26/2019,21:08:22.382126,-0.137294677605183,0.576465381027566,-0.790325117004509
42279,07/26/2019,21:08:22.402126,-0.137322739713196,0.576431732130274,-0.790540563440638
42319,07/26/2019,21:08:22.422126,-0.137223996582718,0.576559346649519,-0.79062011415692
42359,07/26/2019,21:08:22.442126,-0.1371212686208,0.576621974638407,-0.790478438788538
42399,07/26/2019,21:08:22.462126,-0.137108589298339,0.576602991432095,-0.790335034418694
42439,07/26/2019,21:08:22.482126,-0.137141853666972,0.576663400558333,-0.79032454646188
42479,07/26/2019,21:08:22.502126,-0.137138053084608,0.576689270324403,-0.790384262702924
42519,07/26/2019,21:08:22.522126,-0.137135775470228,0.576528627416727,-0.790462536924246
42559,07/26/2019,21:08:22.542126,-0.137181039551242,0.576408980246578,-0.790509820390565
42599,07/26/2019,21:08:22.562126,-0.137193759494481,0.576525457403871,-0.790452744788323
42639,07/26/2019,21:08:22.582126,-0.137138512055765,0.57668233712761,-0.790326135244979
42679,07/26/2019,21:08:22.602126,-0.137126393481898,0.576710170631594,-0.790244829266598
42719,07/26/2019,21:08:22.622126,-0.13721055609718,0.576674596059611,-0.790281327205222
42759,07/26/2019,21:08:22.642126,-0.137291411972258,0.576602565818846,-0.790421144491998
42799,07/26/2019,21:08:22.662126,-0.137292795624216,0.576510091207518,-0.790513561941277
42839,07/26/2019,21:08:22.682126,-0.137239526638246,0.576520334920158,-0.790414640471752
42879,07/26/2019,21:08:22.702126,-0.137154912829751,0.57663063669086,-0.790256899211466
42919,07/26/2019,21:08:22.722126,-0.137076800320777,0.576675322677075,-0.79027143191434
42959,07/26/2019,21:08:22.742126,-0.137115406447726,0.576620234955533,-0.790407774672364
42999,07/26/2019,21:08:22.762126,-0.137270784854676,0.576573209782213,-0.790477592257377
43039,07/26/2019,21:08:22.782126,-0.137339873187777,0.576560246467827,-0.790457231539305
43079,07/26/2019,21:08:22.802126,-0.137239832515955,0.576540061788463,-0.790385782459151
43119,07/26/2019,21:08:22.822126,-0.137160618174356,0.576534450798191,-0.790277577970541
43159,07/26/2019,21:08:22.842126,-0.137197907626891,0.576582723838525,-0.790245450596974
43199,07/26/2019,21:08:22.862126,-0.137208141479195,0.576641068208105,-0.790380714297027
43239,07/26/2019,21:08:22.882126,-0.137151106196075,0.576646086814299,-0.7905372333976
43279,07/26/2019,21:08:22.902126,-0.13714913220664,0.576639997366465,-0.790515894985886
43319,07/26/2019,21:08:22.922126,-0.137186021049032,0.576670068237693,-0.790359067466607
43359,07/26/2019,21:08:22.942126,-0.13716348400913,0.576627436909312,-0.790244470329633
43399,07/26/2019,21:08:22.962126,-0.137155193123664,0.576468160222694,-0.790227531551772
43439,07/26/2019,21:08:22.982126,-0.137231355461341,0.576418664414826,-0.790272472857572
43479,07/26/2019,21:08:23.002126,-0.137245837385349,0.576569944282685,-0.790361772760683
43519,07/26/2019,21:08:23.022126,-0.137114300214903,0.576637833032439,-0.790404671160008
43559,07/26/2019,21:08:23.042126,-0.137020180851115,0.576521338107784,-0.790280750917363
43599,07/26/2019,21:08:23.062126,-0.137101383311231,0.576502951220949,-0.790105561148894
43639,07/26/2019,21:08:23.082126,-0.13722104933589,0.576627966448528,-0.790125842323666
43679,07/26/2019,21:08:23.102126,-0.137223712006607,0.576636631139173,-0.790305266229201
43719,07/26/2019,21:08:23.122126,-0.137176730040657,0.576554472672808,-0.790388180113928
43759,07/26/2019,21:08:23.142126,-0.137191591726025,0.576581878463539,-0.790315732864902
43799,07/26/2019,21:08:23.162126,-0.137181835057641,0.576611909249899,-0.790232294317847
43839,07/26/2019,21:08:23.182126,-0.137036981898394,0.576520239888939,-0.790211859317215
43879,07/26/2019,21:08:23.202126,-0.13690616470372,0.576501480920961,-0.790236776109954
43919,07/26/2019,21:08:23.222126,-0.136977397123841,0.576630623263508,-0.790295022869617
43959,07/26/2019,21:08:23.242126,-0.137122416836885,0.576662033524013,-0.790341345406198
43999,07/26/2019,21:08:23.262126,-0.137129572697868,0.576546356258838,-0.790302349863302
44039,07/26/2019,21:08:23.282126,-0.137069093937177,0.576524702170387,-0.790206725664776
44079,07/26/2019,21:08:23.302126,-0.1370979635426,0.576625676334987,-0.790188127048839
44119,07/26/2019,21:08:23.322126,-0.137175367276931,0.576647328961349,-0.790300946766082
44159,07/26/2019,21:08:23.342126,-0.137195251874082,0.576565507683688,-0.790435916389477
44199,07/26/2019,21:08:23.362126,-0.137155797366288,0.576527685405024,-0.790471430661581
44239,07/26/2019,21:08:23.382126,-0.137117320588078,0.576603416237624,-0.79042996483532
44279,07/26/2019,21:08:23.402126,-0.137146008759264,0.576742363907605,-0.790418323774194
44319,07/26/2019,21:08:23.422126,-0.137249210726927,0.576808091930423,-0.790449539323536
44359,07/26/2019,21:08:23.442126,-0.137314093555533,0.576705735972648,-0.790428158380255
44399,07/26/2019,21:08:23.462126,-0.137234090554362,0.576574450223089,-0.790348614559249
44439,07/26/2019,21:08:23.482126,-0.137077372324318,0.576609407171407,-0.790348259655087
44479,07/26/2019,21:08:23.502126,-0.136996721414636,0.576733130741427,-0.790448254623578
44519,07/26/2019,21:08:23.522126,-0.137020327250655,0.576751948580853,-0.790467899437243
44559,07/26/2019,21:08:23.542126,-0.137047129616907,0.576661777695741,-0.790349424484298
44599,07/26/2019,21:08:23.562126,-0.137019165414849,0.576567107310957,-0.790276671041562
44639,07/26/2019,21:08:23.582126,-0.136994339846781,0.576523952403307,-0.790340921120599
44679,07/26/2019,21:08:23.602126,-0.137030365515234,0.576536911891754,-0.790409825036197
44719,07/26/2019,21:08:23.622126,-0.137099759691657,0.576562413597502,-0.790391725787773
44759,07/26/2019,21:08:23.642126,-0.137157041018569,0.576570691967047,-0.790343754191125
44799,07/26/2019,21:08:23.662126,-0.137180319221632,0.576588211805385,-0.790322010599354
44839,07/26/2019,21:08:23.682126,-0.137162195707948,0.576604929543705,-0.790321888945325
44879,07/26/2019,21:08:23.702126,-0.137154998728475,0.576597746853807,-0.790331374334484
44919,07/26/2019,21:08:23.722126,-0.137194659632069,0.5766080188104,-0.790342030500827
44959,07/26/2019,21:08:23.742126,-0.137172923353025,0.576614653197982,-0.790333380340393
44999,07/26/2019,21:08:23.762126,-0.137039665920502,0.576554646120033,-0.790303986556089
45039,07/26/2019,21:08:23.782126,-0.136967231592801,0.576541646112068,-0.790320314281667
45079,07/26/2019,21:08:23.802126,-0.137016218838483,0.576676022921785,-0.790441935068652
45119,07/26/2019,21:08:23.822126,-0.137012317038055,0.57675551227726,-0.790574663294096
45159,07/26/2019,21:08:23.842126,-0.136953347826763,0.576627792786179,-0.790567387212832
45199,07/26/2019,21:08:23.862126,-0.136991656467278,0.57652035768875,-0.790451539579113
45239,07/26/2019,21:08:23.882126,-0.137024736316129,0.576616359692795,-0.790361576057416
45279,07/26/2019,21:08:23.902126,-0.136913622593984,0.576735163524428,-0.790323432620372
45319,07/26/2019,21:08:23.922126,-0.13686284300944,0.576713654308857,-0.790341719428268
45359,07/26/2019,21:08:23.942126,-0.137031903779356,0.576651546783833,-0.790465987864679
45399,07/26/2019,21:08:23.962126,-0.137177643942652,0.576628108505134,-0.790621706934228
45439,07/26/2019,21:08:23.982126,-0.137102073574268,0.57658263007681,-0.790656686634422
45479,07/26/2019,21:08:24.002126,-0.136990733724497,0.576545819309239,-0.790575216539065
45519,07/26/2019,21:08:24.022126,-0.137021257808587,0.576622259163321,-0.790497090248954
45559,07/26/2019,21:08:24.042126,-0.137076693362668,0.576713201219936,-0.790481103373767
45599,07/26/2019,21:08:24.062126,-0.137044656990776,0.576641715560481,-0.790520197031792
45639,07/26/2019,21:08:24.082126,-0.137014148051538,0.576525099761645,-0.79058809075251
45679,07/26/2019,21:08:24.102126,-0.137026644826029,0.576582001527639,-0.790631995822912
45719,07/26/2019,21:08:24.122126,-0.136987030315345,0.576707914257633,-0.790587131487167
45759,07/26/2019,21:08:24.142126,-0.136927596173618,0.576700968301821,-0.790449850789873
45799,07/26/2019,21:08:24.162126,-0.136992194681303,0.576639836207789,-0.790335237421319
45839,07/26/2019,21:08:24.182126,-0.137105689934333,0.576656914845445,-0.790368250415309
45879,07/26/2019,21:08:24.202126,-0.137056127130507,0.576688682272963,-0.790489639641786
45919,07/26/2019,21:08:24.222126,-0.136899176271362,0.57667559901167,-0.790512122684895
45959,07/26/2019,21:08:24.242126,-0.136889849314663,0.576667636489298,-0.790395567654233
45999,07/26/2019,21:08:24.262126,-0.137060681605638,0.576673604014281,-0.790295250246486
46039,07/26/2019,21:08:24.282126,-0.137192673183678,0.576663697876461,-0.790316732259309
46079,07/26/2019,21:08:24.302126,-0.137151395769278,0.576660646889826,-0.790409280909566
46119,07/26/2019,21:08:24.322126,-0.137025594307087,0.576671909281093,-0.79051542766261
46159,07/26/2019,21:08:24.342126,-0.13694631628466,0.576648684600731,-0.790623318242113
46199,07/26/2019,21:08:24.362126,-0.136919868220862,0.576591762343404,-0.790669539409856
46239,07/26/2019,21:08:24.382126,-0.136900087797813,0.576569086060127,-0.790594679966214
46279,07/26/2019,21:08:24.402126,-0.136907399299862,0.576598726044898,-0.790476193381043
46319,07/26/2019,21:08:24.422126,-0.136959648891107,0.576631181054175,-0.790438020030794
46359,07/26/2019,21:08:24.442126,-0.136997800941708,0.576637758344124,-0.790487023852029
46399,07/26/2019,21:08:24.462126,-0.136985406421236,0.576627188768264,-0.79055914452721
46439,07/26/2019,21:08:24.482126,-0.136961698799807,0.576613015352155,-0.79062520556824
46479,07/26/2019,21:08:24.502126,-0.136948059717451,0.576616115877027,-0.790650215147265
46519,07/26/2019,21:08:24.522126,-0.136929399612354,0.576661689694479,-0.790569493710522
46559,07/26/2019,21:08:24.542126,-0.136935087139027,0.576742593273194,-0.790413728258733
46599,07/26/2019,21:08:24.562126,-0.137000734853301,0.576783585132122,-0.790340006947626
46639,07/26/2019,21:08:24.582126,-0.137044046867491,0.576703490867913,-0.790420435317591
46679,07/26/2019,21:08:24.602126,-0.136962686890624,0.576561060951431,-0.790517796698758
46719,07/26/2019,21:08:24.622126,-0.13687499006076,0.576499862381005,-0.790486129404057
46759,07/26/2019,21:08:24.642126,-0.136972661953083,0.576523285899764,-0.790359435809507
46799,07/26/2019,21:08:24.662126,-0.137129356694424,0.576550066241736,-0.790253131882092
46839,07/26/2019,21:08:24.682126,-0.137082108551927,0.576603953158539,-0.790239432076549
46879,07/26/2019,21:08:24.702126,-0.136935028114054,0.576693665573994,-0.790349081389314
46919,07/26/2019,21:08:24.722126,-0.136964122701273,0.576720026129758,-0.790514910614101
46959,07/26/2019,21:08:24.742126,-0.137106136438157,0.576660685562909,-0.790561978328599
46999,07/26/2019,21:08:24.762126,-0.137144483780744,0.576580890396947,-0.790430669844038
47039,07/26/2019,21:08:24.782126,-0.13710177396277,0.576497167870125,-0.790296587534437
47079,07/26/2019,21:08:24.802126,-0.137078615975131,0.57644234569021,-0.790327026113143
47119,07/26/2019,21:08:24.822126,-0.137060119614675,0.576464189010573,-0.790458292757223
47159,07/26/2019,21:08:24.842126,-0.137046970187933,0.576491834485146,-0.790521601294726
47199,07/26/2019,21:08:24.862126,-0.137067464883688,0.576455701629081,-0.790476894924465
47239,07/26/2019,21:08:24.882126,-0.137099167999136,0.576445784177416,-0.790416989423934
47279,07/26/2019,21:08:24.902126,-0.137148432559025,0.576535867241614,-0.790388657684333
47319,07/26/2019,21:08:24.922126,-0.137223352886353,0.576615765502678,-0.790349454305909
47359,07/26/2019,21:08:24.942126,-0.137233151140104,0.576557477907539,-0.790309878006608
47399,07/26/2019,21:08:24.962126,-0.137139530749958,0.576434343009307,-0.790339184514125
47439,07/26/2019,21:08:24.982126,-0.137052807135067,0.576428712871743,-0.790410607898736
47479,07/26/2019,21:08:25.002126,-0.137028762706587,0.576531503646439,-0.790426227941525
47519,07/26/2019,21:08:25.022126,-0.137033085331449,0.576540373351111,-0.790393725055846
47559,07/26/2019,21:08:25.042126,-0.137103350095115,0.576421844273281,-0.790417285154645
47599,07/26/2019,21:08:25.062126,-0.137227642401856,0.576372440945079,-0.790499874545656
47639,07/26/2019,21:08:25.082126,-0.137238332160912,0.576455663104889,-0.790492063255818
47679,07/26/2019,21:08:25.102126,-0.137115555394216,0.576544533538112,-0.790347427591715
47719,07/26/2019,21:08:25.122126,-0.137061780609994,0.576602860465075,-0.790283539901749
47759,07/26/2019,21:08:25.142126,-0.137111284762432,0.576647941063839,-0.790443480817864
47799,07/26/2019,21:08:25.162126,-0.137117345431379,0.576586165000478,-0.790594054652314
47839,07/26/2019,21:08:25.182126,-0.137111724275202,0.576428158688347,-0.790494733865679
47879,07/26/2019,21:08:25.202126,-0.137191596948854,0.576391711061047,-0.790306457026673
47919,07/26/2019,21:08:25.222126,-0.1372329893839,0.576514224853242,-0.790301136404537
47959,07/26/2019,21:08:25.242126,-0.137138539771447,0.576547108399755,-0.790439507992793
47999,07/26/2019,21:08:25.262126,-0.137075321215421,0.576434180796991,-0.790507247568243
48039,07/26/2019,21:08:25.282126,-0.137150211438344,0.576410156983744,-0.790463457876188
48079,07/26/2019,21:08:25.302126,-0.137188120031837,0.576503962401938,-0.790436880754951
48119,07/26/2019,21:08:25.322126,-0.137081987388256,0.576509147391652,-0.790449366128875
48159,07/26/2019,21:08:25.342126,-0.137028378558569,0.576457409026773,-0.790363784991392
48199,07/26/2019,21:08:25.362126,-0.137162987620459,0.57650856539587,-0.790185424069076
48239,07/26/2019,21:08:25.382126,-0.137270205169296,0.576529107755176,-0.790157044122346
48279,07/26/2019,21:08:25.402126,-0.13714697063231,0.576394087212582,-0.790376920151901
48319,07/26/2019,21:08:25.422126,-0.136979693439201,0.576339655007323,-0.790609393531014
48359,07/26/2019,21:08:25.442126,-0.13703716954183,0.576478231494974,-0.790635746111629
48399,07/26/2019,21:08:25.462126,-0.137227081972364,0.57653374177793,-0.790492609773919
48439,07/26/2019,21:08:25.482126,-0.137289945941684,0.576431639744373,-0.790314562656983
48479,07/26/2019,21:08:25.502126,-0.137230527945752,0.576438586694713,-0.790221878118361
48519,07/26/2019,21:08:25.522126,-0.137210129820923,0.576553671111316,-0.790281526148693
48559,07/26/2019,21:08:25.542126,-0.137197490386205,0.576513696209464,-0.790400295047591
48599,07/26/2019,21:08:25.562126,-0.137094811176706,0.576370500559706,-0.790436860827827
48639,07/26/2019,21:08:25.582126,-0.137004767161117,0.576381273572917,-0.790418821431927
48679,07/26/2019,21:08:25.602126,-0.137031754076524,0.576496641053743,-0.790419661480695
48719,07/26/2019,21:08:25.622126,-0.137087853114869,0.576502974834008,-0.790386703926685
48759,07/26/2019,21:08:25.642126,-0.137114244136223,0.576431597251109,-0.790300582109306
48799,07/26/2019,21:08:25.662126,-0.137151327267751,0.576425551361261,-0.790267505468035
48839,07/26/2019,21:08:25.682126,-0.137158775036799,0.576460129542255,-0.790324456532223
48879,07/26/2019,21:08:25.702126,-0.137111847957096,0.576479283576884,-0.790371439532732
48919,07/26/2019,21:08:25.722126,-0.137124893093131,0.576550326580816,-0.790348599783488
48959,07/26/2019,21:08:25.742126,-0.137227811344894,0.576672675025585,-0.790326049214539
48999,07/26/2019,21:08:25.762126,-0.137280808810193,0.576685318101775,-0.790368097059327
49039,07/26/2019,21:08:25.782126,-0.13723918435296,0.576550409401276,-0.790398031528937
49079,07/26/2019,21:08:25.802126,-0.137210179842304,0.576489970197565,-0.790329637965762
49119,07/26/2019,21:08:25.822126,-0.137193034799476,0.576632928344177,-0.790267448390914
49159,07/26/2019,21:08:25.842126,-0.137084684388178,0.576757250157786,-0.790336757068142
49199,07/26/2019,21:08:25.862126,-0.136988051123649,0.576657146675677,-0.790425327306078
49239,07/26/2019,21:08:25.882126,-0.137104105761092,0.576516995676044,-0.790392819797797
49279,07/26/2019,21:08:25.902126,-0.137290061451384,0.576554147035895,-0.790326261474972
49319,07/26/2019,21:08:25.922126,-0.137258587432303,0.576599285194989,-0.790315627536425
49359,07/26/2019,21:08:25.942126,-0.137132033025299,0.576473129195808,-0.790287490791753
49399,07/26/2019,21:08:25.962126,-0.137177615944918,0.5763778881881,-0.790247147664399
49439,07/26/2019,21:08:25.982126,-0.137265151816965,0.576462174903892,-0.790328820121703
49479,07/26/2019,21:08:26.002126,-0.137197481970564,0.576501749772686,-0.790506194120998
49519,07/26/2019,21:08:26.022126,-0.137141780351053,0.576393238410006,-0.790581614481574
49559,07/26/2019,21:08:26.042126,-0.137237772730379,0.576380799959656,-0.790499651239798
49599,07/26/2019,21:08:26.062126,-0.137283986491986,0.576538890346246,-0.790401474027585
49639,07/26/2019,21:08:26.082126,-0.137161725859267,0.576626940720363,-0.790378952364074
49679,07/26/2019,21:08:26.102126,-0.13708959284161,0.576562248208022,-0.7904036853805
49719,07/26/2019,21:08:26.122126,-0.137211880494838,0.576509041790038,-0.790447501870609
49759,07/26/2019,21:08:26.142126,-0.137345607366177,0.576527216748912,-0.790479126926611
49799,07/26/2019,21:08:26.162126,-0.137329004058562,0.576537256371051,-0.790432835608348
49839,07/26/2019,21:08:26.182126,-0.137265572280599,0.576528661805869,-0.790326148246043
49879,07/26/2019,21:08:26.202126,-0.137256385872004,0.576537325573555,-0.790293419322919
49919,07/26/2019,21:08:26.222126,-0.137222425236589,0.576533501084883,-0.790395286540397
49959,07/26/2019,21:08:26.242126,-0.13714189061639,0.57649336178789,-0.790495361405612
49999,07/26/2019,21:08:26.262126,-0.137143536452964,0.576487085086077,-0.790442764176139
50039,07/26/2019,21:08:26.282126,-0.137230747730588,0.576572716083658,-0.790320887097337
50079,07/26/2019,21:08:26.302126,-0.137230446051336,0.57667434223723,-0.790340200614708
50119,07/26/2019,21:08:26.322126,-0.137130555411657,0.576695817777427,-0.790503224445627
50159,07/26/2019,21:08:26.342126,-0.137121579811031,0.576667809401599,-0.79060159389334
50199,07/26/2019,21:08:26.362126,-0.13721074745622,0.576641472207,-0.790522211454571
50239,07/26/2019,21:08:26.382126,-0.137196874940714,0.576586823586439,-0.790341371328805
50279,07/26/2019,21:08:26.402126,-0.137083304121406,0.576524816771017,-0.790180335799527
50319,07/26/2019,21:08:26.422126,-0.137075414042182,0.576545870189792,-0.790126788589878
50359,07/26/2019,21:08:26.442126,-0.137177775292337,0.576624786528493,-0.790217498185447
50399,07/26/2019,21:08:26.462126,-0.137214242651756,0.57665041665406,-0.790399442590221
50439,07/26/2019,21:08:26.482126,-0.137165233859516,0.576618170207708,-0.790540988349131
50479,07/26/2019,21:08:26.502126,-0.137150337105384,0.576591773205168,-0.790531668632868
50519,07/26/2019,21:08:26.522126,-0.137192793043824,0.576573804699518,-0.79040184866182
50559,07/26/2019,21:08:26.542126,-0.137213693430786,0.57654509421258,-0.790304352190837
50599,07/26/2019,21:08:26.562126,-0.137182118658169,0.576521801935472,-0.790320187494319
50639,07/26/2019,21:08:26.582126,-0.137161960089182,0.57653440392157,-0.790367963897236
50679,07/26/2019,21:08:26.602126,-0.137191517127249,0.576602220088988,-0.790367214742796
50719,07/26/2019,21:08:26.622126,-0.137194534557349,0.57668714623424,-0.79034527318876
50759,07/26/2019,21:08:26.642126,-0.137127932426852,0.576697106080532,-0.790329192468847
50799,07/26/2019,21:08:26.662126,-0.137092558332062,0.576607280618052,-0.790310171643122
50839,07/26/2019,21:08:26.682126,-0.137135846544271,0.576514411323304,-0.790330230009802
50879,07/26/2019,21:08:26.702126,-0.137150351438173,0.576517534983273,-0.790421101313175
50919,07/26/2019,21:08:26.722126,-0.137103437127062,0.576590897534274,-0.790505320817112
50959,07/26/2019,21:08:26.742126,-0.137106978999887,0.576623381652986,-0.790509347719969
50999,07/26/2019,21:08:26.762126,-0.137182190089393,0.576595346263275,-0.790455803087698
51039,07/26/2019,21:08:26.782126,-0.137211479438979,0.576607250429443,-0.790378124153053
51079,07/26/2019,21:08:26.802126,-0.137153394786367,0.576671966359747,-0.790317317049805
51119,07/26/2019,21:08:26.822126,-0.137095908046425,0.576686091055788,-0.79034774444522
51159,07/26/2019,21:08:26.842126,-0.137088562008385,0.576645709183789,-0.790440189054798
51199,07/26/2019,21:08:26.862126,-0.1370854687439,0.576624525490715,-0.790464318047881
51239,07/26/2019,21:08:26.882126,-0.137057245468704,0.576608870482433,-0.790404103682743
51279,07/26/2019,21:08:26.902126,-0.137028044036601,0.576586520798993,-0.790356934594298
51319,07/26/2019,21:08:26.922126,-0.137017760333528,0.576604508913831,-0.790358579601089
51359,07/26/2019,21:08:26.942126,-0.137040775645648,0.576633643762642,-0.790376867157557
51399,07/26/2019,21:08:26.962126,-0.137089026903076,0.576616164517024,-0.790372695911225
51439,07/26/2019,21:08:26.982126,-0.137085871055431,0.57658799571294,-0.790326147846242
51479,07/26/2019,21:08:27.002126,-0.137009204203752,0.576573723067989,-0.790296251082699
51519,07/26/2019,21:08:27.022126,-0.136993839999812,0.576539020714309,-0.79036122501849
51559,07/26/2019,21:08:27.042126,-0.137096993570503,0.576505559875898,-0.790467387979482
51599,07/26/2019,21:08:27.062126,-0.137146205485748,0.576515976848869,-0.790493551280778
51639,07/26/2019,21:08:27.082126,-0.13705185860083,0.576535856184537,-0.790424284183327
51679,07/26/2019,21:08:27.102126,-0.136991533530441,0.576516756573724,-0.790331236269609
51719,07/26/2019,21:08:27.122126,-0.13708324896861,0.576461560972775,-0.79028266499939
51759,07/26/2019,21:08:27.142126,-0.137189189147551,0.57640311027203,-0.790326707194063
51799,07/26/2019,21:08:27.162126,-0.137182796183688,0.576385272256567,-0.79044054547508
51839,07/26/2019,21:08:27.182126,-0.137116486795759,0.576420189614478,-0.790509366930608
51879,07/26/2019,21:08:27.202126,-0.137056471260127,0.576466658656013,-0.790460557760162
51919,07/26/2019,21:08:27.222126,-0.13701782093338,0.576494705962167,-0.790363912413563
51959,07/26/2019,21:08:27.242126,-0.137055920433232,0.576497971211292,-0.790332211068316
51999,07/26/2019,21:08:27.262126,-0.137159427719459,0.576463603598273,-0.790379624797573
52039,07/26/2019,21:08:27.282126,-0.137163988234944,0.576434768228348,-0.790423781020597
52079,07/26/2019,21:08:27.302126,-0.137044581063729,0.576487492575357,-0.790412128065798
52119,07/26/2019,21:08:27.322126,-0.137024480080438,0.576572956136664,-0.790394361950155
52159,07/26/2019,21:08:27.342126,-0.13713437598588,0.576580893291916,-0.790423778335042
52199,07/26/2019,21:08:27.362126,-0.137121498605073,0.576550756886562,-0.790454138710482
52239,07/26/2019,21:08:27.382126,-0.136993687208572,0.576572709542646,-0.790427890771489
52279,07/26/2019,21:08:27.402126,-0.13703964372594,0.576577357126655,-0.790396988595387
52319,07/26/2019,21:08:27.422126,-0.137216673332482,0.576491722457177,-0.790433706506191
52359,07/26/2019,21:08:27.442126,-0.137195775025678,0.576436483200418,-0.790480597438416
52399,07/26/2019,21:08:27.462126,-0.13699572189767,0.576496800709012,-0.79044277240596
52439,07/26/2019,21:08:27.482126,-0.136936703453985,0.576523669320202,-0.79036904249206
52479,07/26/2019,21:08:27.502126,-0.137061994483201,0.576424315969893,-0.790354660558401
52519,07/26/2019,21:08:27.522126,-0.137123791378875,0.576365775161086,-0.790367128122215
52559,07/26/2019,21:08:27.542126,-0.137026604511948,0.576460760701763,-0.790362160510536
52599,07/26/2019,21:08:27.562126,-0.136928582447045,0.57656242995616,-0.790401174307434
52639,07/26/2019,21:08:27.582126,-0.136978999470468,0.576539434953776,-0.790507529496413
52679,07/26/2019,21:08:27.602126,-0.137132638013803,0.576472726505115,-0.790603362178428
52719,07/26/2019,21:08:27.622126,-0.137216948042593,0.576467888794391,-0.790628533786393
52759,07/26/2019,21:08:27.642126,-0.137151106776059,0.576485882436991,-0.790580639375901
52799,07/26/2019,21:08:27.662126,-0.137037848855145,0.57646767012853,-0.790508656080682
52839,07/26/2019,21:08:27.682126,-0.136994314793532,0.576477601833641,-0.790495136890202
52879,07/26/2019,21:08:27.702126,-0.137002997108508,0.576570731901746,-0.790541811684477
52919,07/26/2019,21:08:27.722126,-0.137007440190459,0.576642682574874,-0.790568750804793
52959,07/26/2019,21:08:27.742126,-0.137035608168907,0.576594453080284,-0.790562030065562
52999,07/26/2019,21:08:27.762126,-0.137118725291932,0.576500588190439,-0.790546989321889
53039,07/26/2019,21:08:27.782126,-0.137185064322364,0.576463883238402,-0.79048596230922
53079,07/26/2019,21:08:27.802126,-0.137176988885984,0.57648362456019,-0.790372490817255
53119,07/26/2019,21:08:27.822126,-0.137163979684988,0.57653412820961,-0.790299838640623
53159,07/26/2019,21:08:27.842126,-0.137188445565435,0.576591739815459,-0.790348698191903
53199,07/26/2019,21:08:27.862126,-0.137190035526167,0.576596457435182,-0.790482352266876
53239,07/26/2019,21:08:27.882126,-0.137177037036659,0.576519868082015,-0.790533448824174
53279,07/26/2019,21:08:27.902126,-0.137192425284502,0.576433700760418,-0.790367105261134
53319,07/26/2019,21:08:27.922126,-0.137171208860238,0.576443341625367,-0.790137832933155
53359,07/26/2019,21:08:27.942126,-0.13711771209387,0.576550907785525,-0.790142722663567
53399,07/26/2019,21:08:27.962126,-0.137154437115133,0.576632562033248,-0.790365928878583
53439,07/26/2019,21:08:27.982126,-0.137229973303622,0.576627254261468,-0.790519100372375
53479,07/26/2019,21:08:28.002126,-0.137182454010962,0.57663394505759,-0.790496669387355
53519,07/26/2019,21:08:28.022126,-0.137054676707522,0.576685669233468,-0.790424329847562
53559,07/26/2019,21:08:28.042126,-0.136989974090423,0.576657087626133,-0.790362926080859
53599,07/26/2019,21:08:28.062126,-0.137018507145057,0.576533760425609,-0.790281586262173
53639,07/26/2019,21:08:28.082126,-0.137088028484119,0.57645808635156,-0.790239396247654
53679,07/26/2019,21:08:28.102126,-0.137099284934091,0.576454439769617,-0.790345575485866
53719,07/26/2019,21:08:28.122126,-0.137020256209343,0.576440065443032,-0.790538206811705
53759,07/26/2019,21:08:28.142126,-0.136988128141715,0.576439699580922,-0.790609306088026
53799,07/26/2019,21:08:28.162126,-0.137051226495659,0.576503197623985,-0.790505194225869
53839,07/26/2019,21:08:28.182126,-0.137059078856727,0.576556755969965,-0.790382192000714
53879,07/26/2019,21:08:28.202126,-0.137010772609985,0.576540761227717,-0.790340964655115
53919,07/26/2019,21:08:28.222126,-0.137051975683654,0.576533908885252,-0.790360249216279
53959,07/26/2019,21:08:28.242126,-0.137104423291349,0.576587875242557,-0.790424467864183
53999,07/26/2019,21:08:28.262126,-0.137024196714106,0.576596044266133,-0.790476566438288
54039,07/26/2019,21:08:28.282126,-0.136952399735539,0.576511113619208,-0.790415743625112
54079,07/26/2019,21:08:28.302126,-0.13705116102054,0.576505623763383,-0.790297030868576
54119,07/26/2019,21:08:28.322126,-0.137178542479855,0.576644760709837,-0.790288633309948
54159,07/26/2019,21:08:28.342126,-0.137156345825593,0.576682390900858,-0.790383130044026
54199,07/26/2019,21:08:28.362126,-0.137074083663451,0.576507343927756,-0.79042127377179
54239,07/26/2019,21:08:28.382126,-0.137094435775141,0.576385758885898,-0.790380465394799
54279,07/26/2019,21:08:28.402126,-0.137170396851625,0.576488910608996,-0.79038170873168
54319,07/26/2019,21:08:28.422126,-0.137166215869282,0.576648698788304,-0.790441868432137
54359,07/26/2019,21:08:28.442126,-0.137127535633678,0.576692730139621,-0.790448144446879
54399,07/26/2019,21:08:28.462126,-0.137187034411483,0.576619954823519,-0.790383935594358
54439,07/26/2019,21:08:28.482126,-0.137287343738973,0.57650725573807,-0.790376712555983
54479,07/26/2019,21:08:28.502126,-0.137260920827868,0.576455373780581,-0.790457316784036
54519,07/26/2019,21:08:28.522126,-0.137115548394807,0.576485966361309,-0.790468298894258
54559,07/26/2019,21:08:28.542126,-0.137029506875041,0.576515689269031,-0.790349166663375
54599,07/26/2019,21:08:28.562126,-0.137096474925135,0.57651846237326,-0.790303283578557
54639,07/26/2019,21:08:28.582126,-0.137190531339723,0.576511307273284,-0.790460946150227
54679,07/26/2019,21:08:28.602126,-0.137164270176903,0.576442583126521,-0.790611094416783
54719,07/26/2019,21:08:28.622126,-0.137110992490081,0.576354139502247,-0.790552218595599
54759,07/26/2019,21:08:28.642126,-0.137164755139871,0.576424624581192,-0.790431257246718
54799,07/26/2019,21:08:28.662126,-0.137177506071459,0.576631468024068,-0.790432609978826
54839,07/26/2019,21:08:28.682126,-0.137017273167132,0.576707252889166,-0.790473085708913
54879,07/26/2019,21:08:28.702126,-0.136901192849143,0.576581157402454,-0.790464508434611
54919,07/26/2019,21:08:28.722126,-0.137003744175012,0.57649970388708,-0.790486260277442
54959,07/26/2019,21:08:28.742126,-0.137151664872932,0.576604442098754,-0.790540320960523
54999,07/26/2019,21:08:28.762126,-0.137180539973975,0.576729448017268,-0.790512968744932
55039,07/26/2019,21:08:28.782126,-0.137149052560002,0.57671819910267,-0.790397348501268
55079,07/26/2019,21:08:28.802126,-0.137121407117044,0.57663878426231,-0.790296055176528
55119,07/26/2019,21:08:28.822126,-0.137085603409287,0.576590708564697,-0.790316672302938
55159,07/26/2019,21:08:28.842126,-0.137052341629421,0.576577374054479,-0.790506013209689
55199,07/26/2019,21:08:28.862126,-0.137048675813644,0.57661112042509,-0.790695862992869
55239,07/26/2019,21:08:28.882126,-0.137081834832423,0.576681982330087,-0.790610384330715
55279,07/26/2019,21:08:28.902126,-0.137159019897354,0.576688890591657,-0.790307557256613
55319,07/26/2019,21:08:28.922126,-0.137243832394267,0.576621623688636,-0.790152864142624
55359,07/26/2019,21:08:28.942126,-0.137222663376485,0.576613810224917,-0.790281347640146
55399,07/26/2019,21:08:28.962126,-0.137085420821573,0.57668129017434,-0.790501379322334
55439,07/26/2019,21:08:28.982126,-0.137033296847422,0.576694593175693,-0.790649713491526
55479,07/26/2019,21:08:29.002126,-0.137143781616989,0.576635543597001,-0.790657234299017
55519,07/26/2019,21:08:29.022126,-0.137168796604593,0.576604124736561,-0.790470266161261
55559,07/26/2019,21:08:29.042126,-0.136997610094427,0.576636722121363,-0.790208226639342
55599,07/26/2019,21:08:29.062126,-0.136903212933441,0.576673438713349,-0.790138824861727
55639,07/26/2019,21:08:29.082126,-0.136997704527516,0.576612362922297,-0.790310302958972
55679,07/26/2019,21:08:29.102126,-0.137028627104616,0.57644293636364,-0.790472667640394
55719,07/26/2019,21:08:29.122126,-0.136950477823437,0.576374559124211,-0.790444271103338
55759,07/26/2019,21:08:29.142126,-0.136988491143217,0.576566182432951,-0.790309254521252
55799,07/26/2019,21:08:29.162126,-0.137080430634985,0.576769791311348,-0.790222095190417
55839,07/26/2019,21:08:29.182126,-0.13701493478908,0.576664095749012,-0.790220668881257
55879,07/26/2019,21:08:29.202126,-0.136950856478119,0.576396282095423,-0.790269258752819
55919,07/26/2019,21:08:29.222126,-0.137077352250804,0.576336264190025,-0.790348285131677
55959,07/26/2019,21:08:29.242126,-0.137154248729479,0.576515321730674,-0.790430876074817
55999,07/26/2019,21:08:29.262126,-0.137010993610014,0.57668710731742,-0.790449016602503
56039,07/26/2019,21:08:29.282126,-0.136948430750088,0.576719288947113,-0.790381328692072
56079,07/26/2019,21:08:29.302126,-0.137140044013892,0.576664529050223,-0.790317901042282
56119,07/26/2019,21:08:29.322126,-0.137262744259114,0.576597484172438,-0.790337169259706
56159,07/26/2019,21:08:29.342126,-0.137135246759371,0.576558172174877,-0.790403933712593
